trial_nr	onset	event_type	phase	response	nr_frames	block_type	trial_type	block_ID	response_hand	phase_length	last_frame	key_duration	onset_abs	duration
0	0.008040899992920458	stim	0		0	ambiguous_practice	ambiguous_practice	0.0	preferred_right	300.0	0.0		6.096224499982782	4.266932800004724
0	4.274973699997645	ambiguous_practice	0	space	1	ambiguous_practice	ambiguous_practice	0.0	preferred_right	300.0	0.0	0.15818069997476414	10.363157299987506	-4.199506100034341
0	0.07546759996330366	stim	1		2	ambiguous_practice	ambiguous_practice	0.0	preferred_right	300.0	0.0		6.163651199953165	0.03487110004061833
0	0.11033870000392199	stim	2		2	ambiguous_practice	ambiguous_practice	0.0	preferred_right	300.0	0.0		6.198522299993783	0.03406959999119863
0	0.14440829999512061	stim	3		2	ambiguous_practice	ambiguous_practice	0.0	preferred_right	300.0	0.0		6.232591899984982	0.03235359996324405
0	0.17676189995836467	stim	4		0	ambiguous_practice	ambiguous_practice	0.0	preferred_right	300.0	0.0		6.264945499948226	4.562789699994028
0	4.739551599952392	ambiguous_practice	4	space	2	ambiguous_practice	ambiguous_practice	0.0	preferred_right	300.0	0.0	0.17422530002659187	10.827735199942254	-4.5119396999944
0	0.22761189995799214	stim	5		2	ambiguous_practice	ambiguous_practice	0.0	preferred_right	300.0	0.0		6.315795499947853	0.03286690003005788
0	0.26047879998805	stim	6		2	ambiguous_practice	ambiguous_practice	0.0	preferred_right	300.0	0.0		6.348662399977911	0.03336750000016764
0	0.29384629998821765	stim	7		2	ambiguous_practice	ambiguous_practice	0.0	preferred_right	300.0	0.0		6.382029899978079	0.0330246000085026
0	0.32687089999672025	stim	8		2	ambiguous_practice	ambiguous_practice	0.0	preferred_right	300.0	0.0		6.4150544999865815	0.033828699961304665
0	0.3606995999580249	stim	9		2	ambiguous_practice	ambiguous_practice	0.0	preferred_right	300.0	0.0		6.448883199947886	0.03346030000830069
0	0.3941598999663256	stim	10		2	ambiguous_practice	ambiguous_practice	0.0	preferred_right	300.0	0.0		6.482343499956187	0.032708800048567355
0	0.42686870001489297	stim	11		2	ambiguous_practice	ambiguous_practice	0.0	preferred_right	300.0	0.0		6.515052300004754	0.0495121999992989
0	0.47638090001419187	stim	12		2	ambiguous_practice	ambiguous_practice	0.0	preferred_right	300.0	0.0		6.564564500004053	0.033483299950603396
0	0.5098641999647953	stim	13		2	ambiguous_practice	ambiguous_practice	0.0	preferred_right	300.0	0.0		6.5980477999546565	0.03357880003750324
0	0.5434430000022985	stim	14		2	ambiguous_practice	ambiguous_practice	0.0	preferred_right	300.0	0.0		6.63162659999216	0.03403049998451024
0	0.5774734999868087	stim	15		2	ambiguous_practice	ambiguous_practice	0.0	preferred_right	300.0	0.0		6.66565709997667	0.03362609999021515
0	0.6110995999770239	stim	16		2	ambiguous_practice	ambiguous_practice	0.0	preferred_right	300.0	0.0		6.699283199966885	0.03316570003516972
0	0.6442653000121936	stim	17		2	ambiguous_practice	ambiguous_practice	0.0	preferred_right	300.0	0.0		6.732448900002055	0.032885099994018674
0	0.6771504000062123	stim	18		2	ambiguous_practice	ambiguous_practice	0.0	preferred_right	300.0	0.0		6.7653339999960735	0.03358369995839894
0	0.7107340999646112	stim	19		2	ambiguous_practice	ambiguous_practice	0.0	preferred_right	300.0	0.0		6.7989176999544725	0.033674600010272115
0	0.7444086999748833	stim	20		2	ambiguous_practice	ambiguous_practice	0.0	preferred_right	300.0	0.0		6.832592299964745	0.03350790002150461
0	0.777916599996388	stim	21		2	ambiguous_practice	ambiguous_practice	0.0	preferred_right	300.0	0.0		6.866100199986249	0.03340379998553544
0	0.8113203999819234	stim	22		2	ambiguous_practice	ambiguous_practice	0.0	preferred_right	300.0	0.0		6.899503999971785	0.03358380001736805
0	0.8449041999992914	stim	23		2	ambiguous_practice	ambiguous_practice	0.0	preferred_right	300.0	0.0		6.933087799989153	0.03277180000441149
0	0.8776760000037029	stim	24		2	ambiguous_practice	ambiguous_practice	0.0	preferred_right	300.0	0.0		6.965859599993564	0.03376849996857345
0	0.9114444999722764	stim	25		2	ambiguous_practice	ambiguous_practice	0.0	preferred_right	300.0	0.0		6.999628099962138	0.03349900001194328
0	0.9449434999842197	stim	26		2	ambiguous_practice	ambiguous_practice	0.0	preferred_right	300.0	0.0		7.033127099974081	0.033322100003715605
0	0.9782655999879353	stim	27		2	ambiguous_practice	ambiguous_practice	0.0	preferred_right	300.0	0.0		7.0664491999777965	0.034025900007691234
0	1.0122914999956265	stim	28		2	ambiguous_practice	ambiguous_practice	0.0	preferred_right	300.0	0.0		7.100475099985488	0.03372870001476258
0	1.046020200010389	stim	29		2	ambiguous_practice	ambiguous_practice	0.0	preferred_right	300.0	0.0		7.13420380000025	0.03363979997811839
0	1.0796599999885075	stim	30		2	ambiguous_practice	ambiguous_practice	0.0	preferred_right	300.0	0.0		7.167843599978369	0.0331554000149481
0	1.1128154000034556	stim	31		2	ambiguous_practice	ambiguous_practice	0.0	preferred_right	300.0	0.0		7.200998999993317	0.033208000008016825
0	1.1460234000114724	stim	32		2	ambiguous_practice	ambiguous_practice	0.0	preferred_right	300.0	0.0		7.234207000001334	0.03363189997617155
0	1.179655299987644	stim	33		2	ambiguous_practice	ambiguous_practice	0.0	preferred_right	300.0	0.0		7.267838899977505	0.033502199978102
0	1.213157499965746	stim	34		2	ambiguous_practice	ambiguous_practice	0.0	preferred_right	300.0	0.0		7.301341099955607	0.033461200015153736
0	1.2466186999808997	stim	35		2	ambiguous_practice	ambiguous_practice	0.0	preferred_right	300.0	0.0		7.334802299970761	0.033276300004217774
0	1.2798949999851175	stim	36		2	ambiguous_practice	ambiguous_practice	0.0	preferred_right	300.0	0.0		7.368078599974979	0.03350820002378896
0	1.3134032000089064	stim	37		2	ambiguous_practice	ambiguous_practice	0.0	preferred_right	300.0	0.0		7.401586799998768	0.033339899964630604
0	1.346743099973537	stim	38		2	ambiguous_practice	ambiguous_practice	0.0	preferred_right	300.0	0.0		7.434926699963398	0.03277699998579919
0	1.3795200999593362	stim	39		2	ambiguous_practice	ambiguous_practice	0.0	preferred_right	300.0	0.0		7.4677036999491975	0.03392040001926944
0	1.4134404999786057	stim	40		2	ambiguous_practice	ambiguous_practice	0.0	preferred_right	300.0	0.0		7.501624099968467	0.0333105000318028
0	1.4467510000104085	stim	41		2	ambiguous_practice	ambiguous_practice	0.0	preferred_right	300.0	0.0		7.53493460000027	0.033163599960971624
0	1.47991459997138	stim	42		2	ambiguous_practice	ambiguous_practice	0.0	preferred_right	300.0	0.0		7.568098199961241	0.03397480002604425
0	1.5138893999974243	stim	43		2	ambiguous_practice	ambiguous_practice	0.0	preferred_right	300.0	0.0		7.602072999987286	0.03340539999771863
0	1.547294799995143	stim	44		2	ambiguous_practice	ambiguous_practice	0.0	preferred_right	300.0	0.0		7.635478399985004	0.03360269998665899
0	1.580897499981802	stim	45		2	ambiguous_practice	ambiguous_practice	0.0	preferred_right	300.0	0.0		7.669081099971663	0.03318169998237863
0	1.6140791999641806	stim	46		2	ambiguous_practice	ambiguous_practice	0.0	preferred_right	300.0	0.0		7.702262799954042	0.03286780003691092
0	1.6469470000010915	stim	47		2	ambiguous_practice	ambiguous_practice	0.0	preferred_right	300.0	0.0		7.735130599990953	0.033929599972907454
0	1.680876599973999	stim	48		2	ambiguous_practice	ambiguous_practice	0.0	preferred_right	300.0	0.0		7.76906019996386	0.03358799999114126
0	1.7144645999651402	stim	49		2	ambiguous_practice	ambiguous_practice	0.0	preferred_right	300.0	0.0		7.8026481999550015	0.033396100043319166
0	1.7478607000084594	stim	50		2	ambiguous_practice	ambiguous_practice	0.0	preferred_right	300.0	0.0		7.836044299998321	0.03359789995010942
0	1.7814585999585688	stim	51		2	ambiguous_practice	ambiguous_practice	0.0	preferred_right	300.0	0.0		7.86964219994843	0.03353450004942715
0	1.814993100007996	stim	52		2	ambiguous_practice	ambiguous_practice	0.0	preferred_right	300.0	0.0		7.903176699997857	0.03310909995343536
0	1.8481021999614313	stim	53		2	ambiguous_practice	ambiguous_practice	0.0	preferred_right	300.0	0.0		7.936285799951293	0.03301569999894127
0	1.8811178999603726	stim	54		2	ambiguous_practice	ambiguous_practice	0.0	preferred_right	300.0	0.0		7.969301499950234	0.03381490003084764
0	1.9149327999912202	stim	55		2	ambiguous_practice	ambiguous_practice	0.0	preferred_right	300.0	0.0		8.003116399981081	0.03378040000097826
0	1.9487131999921985	stim	56		2	ambiguous_practice	ambiguous_practice	0.0	preferred_right	300.0	0.0		8.03689679998206	0.03328319999855012
0	1.9819963999907486	stim	57		2	ambiguous_practice	ambiguous_practice	0.0	preferred_right	300.0	0.0		8.07017999998061	0.03400009998586029
0	2.015996499976609	stim	58		2	ambiguous_practice	ambiguous_practice	0.0	preferred_right	300.0	0.0		8.10418009996647	0.03317030001198873
0	2.0491667999885976	stim	59		2	ambiguous_practice	ambiguous_practice	0.0	preferred_right	300.0	0.0		8.137350399978459	0.03360740002244711
0	2.0827742000110447	stim	60		2	ambiguous_practice	ambiguous_practice	0.0	preferred_right	300.0	0.0		8.170957800000906	0.03342079999856651
0	2.1161950000096112	stim	61		2	ambiguous_practice	ambiguous_practice	0.0	preferred_right	300.0	0.0		8.204378599999472	0.033196199976373464
0	2.1493911999859847	stim	62		2	ambiguous_practice	ambiguous_practice	0.0	preferred_right	300.0	0.0		8.237574799975846	0.033320299990009516
0	2.1827114999759942	stim	63		2	ambiguous_practice	ambiguous_practice	0.0	preferred_right	300.0	0.0		8.270895099965855	0.033811000001151115
0	2.2165224999771453	stim	64		2	ambiguous_practice	ambiguous_practice	0.0	preferred_right	300.0	0.0		8.304706099967007	0.03320549998898059
0	2.249727999966126	stim	65		2	ambiguous_practice	ambiguous_practice	0.0	preferred_right	300.0	0.0		8.337911599955987	0.03343519999179989
0	2.283163199957926	stim	66		2	ambiguous_practice	ambiguous_practice	0.0	preferred_right	300.0	0.0		8.371346799947787	0.03290450002532452
0	2.3160676999832503	stim	67		2	ambiguous_practice	ambiguous_practice	0.0	preferred_right	300.0	0.0		8.404251299973112	0.03354829997988418
0	2.3496159999631345	stim	68		2	ambiguous_practice	ambiguous_practice	0.0	preferred_right	300.0	0.0		8.437799599952996	0.03417780000017956
0	2.383793799963314	stim	69		2	ambiguous_practice	ambiguous_practice	0.0	preferred_right	300.0	0.0		8.471977399953175	0.0332912000012584
0	2.4170849999645725	stim	70		2	ambiguous_practice	ambiguous_practice	0.0	preferred_right	300.0	0.0		8.505268599954434	0.03318700002273545
0	2.450271999987308	stim	71		2	ambiguous_practice	ambiguous_practice	0.0	preferred_right	300.0	0.0		8.53845559997717	0.0334780000266619
0	2.48375000001397	stim	72		2	ambiguous_practice	ambiguous_practice	0.0	preferred_right	300.0	0.0		8.571933600003831	0.03338889998849481
0	2.5171389000024647	stim	73		2	ambiguous_practice	ambiguous_practice	0.0	preferred_right	300.0	0.0		8.605322499992326	0.03373859997373074
0	2.5508774999761954	stim	74		2	ambiguous_practice	ambiguous_practice	0.0	preferred_right	300.0	0.0		8.639061099966057	0.0331675999914296
0	2.584045099967625	stim	75		2	ambiguous_practice	ambiguous_practice	0.0	preferred_right	300.0	0.0		8.672228699957486	0.03347650001524016
0	2.617521599982865	stim	76		2	ambiguous_practice	ambiguous_practice	0.0	preferred_right	300.0	0.0		8.705705199972726	0.03377620002720505
0	2.65129780001007	stim	77		2	ambiguous_practice	ambiguous_practice	0.0	preferred_right	300.0	0.0		8.739481399999931	0.03369319997727871
0	2.684990999987349	stim	78		2	ambiguous_practice	ambiguous_practice	0.0	preferred_right	300.0	0.0		8.77317459997721	0.033325000025797635
0	2.7183160000131465	stim	79		2	ambiguous_practice	ambiguous_practice	0.0	preferred_right	300.0	0.0		8.806499600003008	0.03334309998899698
0	2.7516591000021435	stim	80		2	ambiguous_practice	ambiguous_practice	0.0	preferred_right	300.0	0.0		8.839842699992005	0.03350039996439591
0	2.7851594999665394	stim	81		2	ambiguous_practice	ambiguous_practice	0.0	preferred_right	300.0	0.0		8.8733430999564	0.03347510000457987
0	2.8186345999711193	stim	82		2	ambiguous_practice	ambiguous_practice	0.0	preferred_right	300.0	0.0		8.90681819996098	0.03257760003907606
0	2.8512122000101954	stim	83		2	ambiguous_practice	ambiguous_practice	0.0	preferred_right	300.0	0.0		8.939395800000057	0.03389309998601675
0	2.885105299996212	stim	84		2	ambiguous_practice	ambiguous_practice	0.0	preferred_right	300.0	0.0		8.973288899986073	0.03342499997233972
0	2.918530299968552	stim	85		2	ambiguous_practice	ambiguous_practice	0.0	preferred_right	300.0	0.0		9.006713899958413	0.03341480001108721
0	2.951945099979639	stim	86		2	ambiguous_practice	ambiguous_practice	0.0	preferred_right	300.0	0.0		9.0401286999695	0.03315199998905882
0	2.985097099968698	stim	87		2	ambiguous_practice	ambiguous_practice	0.0	preferred_right	300.0	0.0		9.07328069995856	0.03330539999296889
0	3.0184024999616668	stim	88		2	ambiguous_practice	ambiguous_practice	0.0	preferred_right	300.0	0.0		9.106586099951528	0.03346910001710057
0	3.0518715999787673	stim	89		2	ambiguous_practice	ambiguous_practice	0.0	preferred_right	300.0	0.0		9.140055199968629	0.03278900001896545
0	3.084660599997733	stim	90		2	ambiguous_practice	ambiguous_practice	0.0	preferred_right	300.0	0.0		9.172844199987594	0.03406079998239875
0	3.1187213999801315	stim	91		2	ambiguous_practice	ambiguous_practice	0.0	preferred_right	300.0	0.0		9.206904999969993	0.033479000034276396
0	3.152200400014408	stim	92		2	ambiguous_practice	ambiguous_practice	0.0	preferred_right	300.0	0.0		9.24038400000427	0.0333593999966979
0	3.185559800011106	stim	93		2	ambiguous_practice	ambiguous_practice	0.0	preferred_right	300.0	0.0		9.273743400000967	0.03333859995473176
0	3.2188983999658376	stim	94		2	ambiguous_practice	ambiguous_practice	0.0	preferred_right	300.0	0.0		9.307081999955699	0.033441900042817
0	3.2523403000086546	stim	95		2	ambiguous_practice	ambiguous_practice	0.0	preferred_right	300.0	0.0		9.340523899998516	0.03328859998146072
0	3.2856288999901153	stim	96		2	ambiguous_practice	ambiguous_practice	0.0	preferred_right	300.0	0.0		9.373812499979977	0.03351789998123422
0	3.3191467999713495	stim	97		2	ambiguous_practice	ambiguous_practice	0.0	preferred_right	300.0	0.0		9.40733039996121	0.03326530003687367
0	3.352412100008223	stim	98		2	ambiguous_practice	ambiguous_practice	0.0	preferred_right	300.0	0.0		9.440595699998084	0.03392289998009801
0	3.386334999988321	stim	99		2	ambiguous_practice	ambiguous_practice	0.0	preferred_right	300.0	0.0		9.474518599978182	0.03367809997871518
0	3.4200130999670364	stim	100		2	ambiguous_practice	ambiguous_practice	0.0	preferred_right	300.0	0.0		9.508196699956898	0.05009010003414005
0	3.4701032000011764	stim	101		2	ambiguous_practice	ambiguous_practice	0.0	preferred_right	300.0	0.0		9.558286799991038	0.050115899997763336
0	3.52021909999894	stim	102		2	ambiguous_practice	ambiguous_practice	0.0	preferred_right	300.0	0.0		9.608402699988801	0.05011239997111261
0	3.5703314999700524	stim	103		2	ambiguous_practice	ambiguous_practice	0.0	preferred_right	300.0	0.0		9.658515099959914	0.04998300003353506
0	3.6203145000035875	stim	104		2	ambiguous_practice	ambiguous_practice	0.0	preferred_right	300.0	0.0		9.708498099993449	0.05027219996554777
0	3.6705866999691352	stim	105		2	ambiguous_practice	ambiguous_practice	0.0	preferred_right	300.0	0.0		9.758770299958996	0.04991080000763759
0	3.720497499976773	stim	106		2	ambiguous_practice	ambiguous_practice	0.0	preferred_right	300.0	0.0		9.808681099966634	0.049954699992667884
0	3.7704521999694407	stim	107		2	ambiguous_practice	ambiguous_practice	0.0	preferred_right	300.0	0.0		9.858635799959302	0.0501267000217922
0	3.820578899991233	stim	108		2	ambiguous_practice	ambiguous_practice	0.0	preferred_right	300.0	0.0		9.908762499981094	0.05022069998085499
0	3.870799599972088	stim	109		2	ambiguous_practice	ambiguous_practice	0.0	preferred_right	300.0	0.0		9.95898319996195	0.05034509999677539
0	3.9211446999688633	stim	110		2	ambiguous_practice	ambiguous_practice	0.0	preferred_right	300.0	0.0		10.009328299958725	0.0497107999981381
0	3.9708554999670014	stim	111		2	ambiguous_practice	ambiguous_practice	0.0	preferred_right	300.0	0.0		10.059039099956863	0.033736800018232316
0	4.004592299985234	stim	112		2	ambiguous_practice	ambiguous_practice	0.0	preferred_right	300.0	0.0		10.092775899975095	0.033340000023599714
0	4.037932300008833	stim	113		2	ambiguous_practice	ambiguous_practice	0.0	preferred_right	300.0	0.0		10.126115899998695	0.03337299998383969
0	4.071305299992673	stim	114		2	ambiguous_practice	ambiguous_practice	0.0	preferred_right	300.0	0.0		10.159488899982534	0.033362000016495585
0	4.104667300009169	stim	115		2	ambiguous_practice	ambiguous_practice	0.0	preferred_right	300.0	0.0		10.19285089999903	0.04991979995975271
0	4.154587099968921	stim	116		2	ambiguous_practice	ambiguous_practice	0.0	preferred_right	300.0	0.0		10.242770699958783	0.03333760000532493
0	4.187924699974246	stim	117		2	ambiguous_practice	ambiguous_practice	0.0	preferred_right	300.0	0.0		10.276108299964108	0.033197499986272305
0	4.221122199960519	stim	118		2	ambiguous_practice	ambiguous_practice	0.0	preferred_right	300.0	0.0		10.30930579995038	0.03392260003602132
0	4.25504479999654	stim	119		2	ambiguous_practice	ambiguous_practice	0.0	preferred_right	300.0	0.0		10.343228399986401	0.03358599997591227
0	4.288630799972452	stim	120		2	ambiguous_practice	ambiguous_practice	0.0	preferred_right	300.0	0.0		10.376814399962313	0.03333370003383607
0	4.321964500006288	stim	121		2	ambiguous_practice	ambiguous_practice	0.0	preferred_right	300.0	0.0		10.41014809999615	0.0335641999845393
0	4.355528699990828	stim	122		2	ambiguous_practice	ambiguous_practice	0.0	preferred_right	300.0	0.0		10.443712299980689	0.03325649996986613
0	4.388785199960694	stim	123		2	ambiguous_practice	ambiguous_practice	0.0	preferred_right	300.0	0.0		10.476968799950555	0.03330170002300292
0	4.422086899983697	stim	124		2	ambiguous_practice	ambiguous_practice	0.0	preferred_right	300.0	0.0		10.510270499973558	0.03330010001081973
0	4.455386999994516	stim	125		2	ambiguous_practice	ambiguous_practice	0.0	preferred_right	300.0	0.0		10.543570599984378	0.03335629997309297
0	4.488743299967609	stim	126		2	ambiguous_practice	ambiguous_practice	0.0	preferred_right	300.0	0.0		10.57692689995747	0.033369600016158074
0	4.522112899983767	stim	127		2	ambiguous_practice	ambiguous_practice	0.0	preferred_right	300.0	0.0		10.610296499973629	0.03331819997401908
0	4.5554310999577865	stim	128		2	ambiguous_practice	ambiguous_practice	0.0	preferred_right	300.0	0.0		10.643614699947648	0.0336519000120461
0	4.589082999969833	stim	129		2	ambiguous_practice	ambiguous_practice	0.0	preferred_right	300.0	0.0		10.677266599959694	0.03293899999698624
0	4.622021999966819	stim	130		2	ambiguous_practice	ambiguous_practice	0.0	preferred_right	300.0	0.0		10.71020559995668	0.03339840000262484
0	4.655420399969444	stim	131		2	ambiguous_practice	ambiguous_practice	0.0	preferred_right	300.0	0.0		10.743603999959305	0.03333599999314174
0	4.688756399962585	stim	132		2	ambiguous_practice	ambiguous_practice	0.0	preferred_right	300.0	0.0		10.776939999952447	0.03331660002004355
0	4.722072999982629	stim	133		2	ambiguous_practice	ambiguous_practice	0.0	preferred_right	300.0	0.0		10.81025659997249	0.03331379999872297
0	4.755386799981352	stim	134		2	ambiguous_practice	ambiguous_practice	0.0	preferred_right	300.0	0.0		10.843570399971213	0.03347269998630509
0	4.788859499967657	stim	135		2	ambiguous_practice	ambiguous_practice	0.0	preferred_right	300.0	0.0		10.877043099957518	0.03349880001042038
0	4.822358299978077	stim	136		2	ambiguous_practice	ambiguous_practice	0.0	preferred_right	300.0	0.0		10.910541899967939	0.03359519998775795
0	4.855953499965835	stim	137		2	ambiguous_practice	ambiguous_practice	0.0	preferred_right	300.0	0.0		10.944137099955697	0.03330040001310408
0	4.889253899978939	stim	138		2	ambiguous_practice	ambiguous_practice	0.0	preferred_right	300.0	0.0		10.9774374999688	0.03365649998886511
0	4.9229103999678046	stim	139		2	ambiguous_practice	ambiguous_practice	0.0	preferred_right	300.0	0.0		11.011093999957666	0.03342330001760274
0	4.956333699985407	stim	140		2	ambiguous_practice	ambiguous_practice	0.0	preferred_right	300.0	0.0		11.044517299975269	0.03341440000804141
0	4.989748099993449	stim	141		2	ambiguous_practice	ambiguous_practice	0.0	preferred_right	300.0	0.0		11.07793169998331	0.033092300000134856
0	5.022840399993584	stim	142		2	ambiguous_practice	ambiguous_practice	0.0	preferred_right	300.0	0.0		11.111023999983445	0.03335709997918457
0	5.056197499972768	stim	143		2	ambiguous_practice	ambiguous_practice	0.0	preferred_right	300.0	0.0		11.14438109996263	0.033369400014635175
0	5.089566899987403	stim	144		2	ambiguous_practice	ambiguous_practice	0.0	preferred_right	300.0	0.0		11.177750499977265	0.03334319998975843
0	5.122910099977162	stim	145		2	ambiguous_practice	ambiguous_practice	0.0	preferred_right	300.0	0.0		11.211093699967023	0.03411060001235455
0	5.157020699989516	stim	146		2	ambiguous_practice	ambiguous_practice	0.0	preferred_right	300.0	0.0		11.245204299979378	0.03307629999471828
0	5.190096999984235	stim	147		2	ambiguous_practice	ambiguous_practice	0.0	preferred_right	300.0	0.0		11.278280599974096	0.03341329999966547
0	5.2235102999839	stim	148		2	ambiguous_practice	ambiguous_practice	0.0	preferred_right	300.0	0.0		11.311693899973761	0.0340237999917008
0	5.257534099975601	stim	149		2	ambiguous_practice	ambiguous_practice	0.0	preferred_right	300.0	0.0		11.345717699965462	0.05009869998320937
0	5.30763279995881	stim	150		2	ambiguous_practice	ambiguous_practice	0.0	preferred_right	300.0	0.0		11.395816399948671	0.04989550000755116
0	5.357528299966361	stim	151		2	ambiguous_practice	ambiguous_practice	0.0	preferred_right	300.0	0.0		11.445711899956223	0.05012540001189336
0	5.407653699978255	stim	152		2	ambiguous_practice	ambiguous_practice	0.0	preferred_right	300.0	0.0		11.495837299968116	0.049973700020927936
0	5.457627399999183	stim	153		2	ambiguous_practice	ambiguous_practice	0.0	preferred_right	300.0	0.0		11.545810999989044	0.049967999977525324
0	5.507595399976708	stim	154		2	ambiguous_practice	ambiguous_practice	0.0	preferred_right	300.0	0.0		11.59577899996657	0.05055059998994693
0	5.558145999966655	stim	155		2	ambiguous_practice	ambiguous_practice	0.0	preferred_right	300.0	0.0		11.646329599956516	0.049396000045817345
0	5.607542000012472	stim	156		2	ambiguous_practice	ambiguous_practice	0.0	preferred_right	300.0	0.0		11.695725600002334	0.05047419999027625
0	5.6580162000027485	stim	157		2	ambiguous_practice	ambiguous_practice	0.0	preferred_right	300.0	0.0		11.74619979999261	0.05086919997120276
0	5.708885399973951	stim	158		2	ambiguous_practice	ambiguous_practice	0.0	preferred_right	300.0	0.0		11.797068999963813	0.05043240002123639
0	5.759317799995188	stim	159		2	ambiguous_practice	ambiguous_practice	0.0	preferred_right	300.0	0.0		11.847501399985049	0.049606500018853694
0	5.808924300014041	stim	160		2	ambiguous_practice	ambiguous_practice	0.0	preferred_right	300.0	0.0		11.897107900003903	0.06636079994495958
0	5.875285099959001	stim	161		2	ambiguous_practice	ambiguous_practice	0.0	preferred_right	300.0	0.0		11.963468699948862	0.06686520000221208
0	5.942150299961213	stim	162		2	ambiguous_practice	ambiguous_practice	0.0	preferred_right	300.0	0.0		12.030333899951074	0.04892960004508495
0	5.991079900006298	stim	163		2	ambiguous_practice	ambiguous_practice	0.0	preferred_right	300.0	0.0		12.07926349999616	0.049893699993845075
0	6.040973600000143	stim	164		2	ambiguous_practice	ambiguous_practice	0.0	preferred_right	300.0	0.0		12.129157199990004	0.0511123999604024
0	6.0920859999605455	stim	165		2	ambiguous_practice	ambiguous_practice	0.0	preferred_right	300.0	0.0		12.180269599950407	0.06643080001231283
0	6.158516799972858	stim	166		2	ambiguous_practice	ambiguous_practice	0.0	preferred_right	300.0	0.0		12.24670039996272	0.05006010003853589
0	6.208576900011394	stim	167		2	ambiguous_practice	ambiguous_practice	0.0	preferred_right	300.0	0.0		12.296760500001255	0.05056819994933903
0	6.259145099960733	stim	168		2	ambiguous_practice	ambiguous_practice	0.0	preferred_right	300.0	0.0		12.347328699950594	0.06671890005236492
0	6.325864000013098	stim	169		2	ambiguous_practice	ambiguous_practice	0.0	preferred_right	300.0	0.0		12.41404760000296	0.049938199983444065
0	6.375802199996542	stim	170		2	ambiguous_practice	ambiguous_practice	0.0	preferred_right	300.0	0.0		12.463985799986403	0.05143389996374026
0	6.4272360999602824	stim	171		2	ambiguous_practice	ambiguous_practice	0.0	preferred_right	300.0	0.0		12.515419699950144	0.04843530000653118
0	6.475671399966814	stim	172		2	ambiguous_practice	ambiguous_practice	0.0	preferred_right	300.0	0.0		12.563854999956675	0.05082080001011491
0	6.5264921999769285	stim	173		2	ambiguous_practice	ambiguous_practice	0.0	preferred_right	300.0	0.0		12.61467579996679	0.05011100001865998
0	6.5766031999955885	stim	174		2	ambiguous_practice	ambiguous_practice	0.0	preferred_right	300.0	0.0		12.66478679998545	0.0498723000055179
0	6.626475500001106	stim	175		2	ambiguous_practice	ambiguous_practice	0.0	preferred_right	300.0	0.0		12.714659099990968	0.05253569997148588
0	6.679011199972592	stim	176		2	ambiguous_practice	ambiguous_practice	0.0	preferred_right	300.0	0.0		12.767194799962454	0.06421530002262443
0	6.743226499995217	stim	177		2	ambiguous_practice	ambiguous_practice	0.0	preferred_right	300.0	0.0		12.831410099985078	0.05280599999241531
0	6.796032499987632	stim	178		2	ambiguous_practice	ambiguous_practice	0.0	preferred_right	300.0	0.0		12.884216099977493	0.06654889998026192
0	6.862581399967894	stim	179		2	ambiguous_practice	ambiguous_practice	0.0	preferred_right	300.0	0.0		12.950764999957755	0.06722760002594441
0	6.929808999993838	stim	180		2	ambiguous_practice	ambiguous_practice	0.0	preferred_right	300.0	0.0		13.0179925999837	0.048123400018084794
0	6.977932400011923	stim	181		2	ambiguous_practice	ambiguous_practice	0.0	preferred_right	300.0	0.0		13.066116000001784	0.04995699995197356
0	7.027889399963897	stim	182		2	ambiguous_practice	ambiguous_practice	0.0	preferred_right	300.0	0.0		13.116072999953758	0.05035130004398525
0	7.078240700007882	stim	183		2	ambiguous_practice	ambiguous_practice	0.0	preferred_right	300.0	0.0		13.166424299997743	0.04924289998598397
0	7.127483599993866	stim	184		2	ambiguous_practice	ambiguous_practice	0.0	preferred_right	300.0	0.0		13.215667199983727	0.0502184999641031
0	7.177702099957969	stim	185		2	ambiguous_practice	ambiguous_practice	0.0	preferred_right	300.0	0.0		13.26588569994783	0.049948400002904236
0	7.227650499960873	stim	186		2	ambiguous_practice	ambiguous_practice	0.0	preferred_right	300.0	0.0		13.315834099950735	0.05005650001112372
0	7.277706999971997	stim	187		2	ambiguous_practice	ambiguous_practice	0.0	preferred_right	300.0	0.0		13.365890599961858	0.05010950000723824
0	7.327816499979235	stim	188		2	ambiguous_practice	ambiguous_practice	0.0	preferred_right	300.0	0.0		13.416000099969096	0.05065210000611842
0	7.378468599985354	stim	189		2	ambiguous_practice	ambiguous_practice	0.0	preferred_right	300.0	0.0		13.466652199975215	0.049037299992050976
0	7.427505899977405	stim	190		2	ambiguous_practice	ambiguous_practice	0.0	preferred_right	300.0	0.0		13.515689499967266	0.050019600021187216
0	7.477525499998592	stim	191		2	ambiguous_practice	ambiguous_practice	0.0	preferred_right	300.0	0.0		13.565709099988453	0.05048129998613149
0	7.528006799984723	stim	192		2	ambiguous_practice	ambiguous_practice	0.0	preferred_right	300.0	0.0		13.616190399974585	0.049586999986786395
0	7.57759379997151	stim	193		2	ambiguous_practice	ambiguous_practice	0.0	preferred_right	300.0	0.0		13.665777399961371	0.04998650000197813
0	7.627580299973488	stim	194		2	ambiguous_practice	ambiguous_practice	0.0	preferred_right	300.0	0.0		13.715763899963349	0.050450799986720085
0	7.678031099960208	stim	195		2	ambiguous_practice	ambiguous_practice	0.0	preferred_right	300.0	0.0		13.76621469995007	0.049873100011609495
0	7.727904199971817	stim	196		2	ambiguous_practice	ambiguous_practice	0.0	preferred_right	300.0	0.0		13.816087799961679	0.05015120003372431
0	7.778055400005542	stim	197		2	ambiguous_practice	ambiguous_practice	0.0	preferred_right	300.0	0.0		13.866238999995403	0.049791699973866343
0	7.827847099979408	stim	198		2	ambiguous_practice	ambiguous_practice	0.0	preferred_right	300.0	0.0		13.91603069996927	0.0507476000348106
0	7.878594700014219	stim	199		2	ambiguous_practice	ambiguous_practice	0.0	preferred_right	300.0	0.0		13.96677830000408	0.04966329998569563
0	7.928257999999914	stim	200		2	ambiguous_practice	ambiguous_practice	0.0	preferred_right	300.0	0.0		14.016441599989776	0.0505849999608472
0	7.9788429999607615	stim	201		2	ambiguous_practice	ambiguous_practice	0.0	preferred_right	300.0	0.0		14.067026599950623	0.050000500050373375
0	8.028843500011135	stim	202		2	ambiguous_practice	ambiguous_practice	0.0	preferred_right	300.0	0.0		14.117027100000996	0.050099899992346764
0	8.078943400003482	stim	203		2	ambiguous_practice	ambiguous_practice	0.0	preferred_right	300.0	0.0		14.167126999993343	0.049840499996207654
0	8.12878389999969	stim	204		2	ambiguous_practice	ambiguous_practice	0.0	preferred_right	300.0	0.0		14.21696749998955	0.05020900000818074
0	8.17899290000787	stim	205		2	ambiguous_practice	ambiguous_practice	0.0	preferred_right	300.0	0.0		14.267176499997731	0.0499833999783732
0	8.228976299986243	stim	206		2	ambiguous_practice	ambiguous_practice	0.0	preferred_right	300.0	0.0		14.317159899976104	0.05037210002774373
0	8.279348400013987	stim	207		2	ambiguous_practice	ambiguous_practice	0.0	preferred_right	300.0	0.0		14.367532000003848	0.050198899989482015
0	8.329547300003469	stim	208		2	ambiguous_practice	ambiguous_practice	0.0	preferred_right	300.0	0.0		14.41773089999333	0.05082359997322783
0	8.380370899976697	stim	209		2	ambiguous_practice	ambiguous_practice	0.0	preferred_right	300.0	0.0		14.468554499966558	0.05051949998596683
0	8.430890399962664	stim	210		2	ambiguous_practice	ambiguous_practice	0.0	preferred_right	300.0	0.0		14.519073999952525	0.04960720002418384
0	8.480497599986847	stim	211		2	ambiguous_practice	ambiguous_practice	0.0	preferred_right	300.0	0.0		14.568681199976709	0.0505247000255622
0	8.53102230001241	stim	212		2	ambiguous_practice	ambiguous_practice	0.0	preferred_right	300.0	0.0		14.619205900002271	0.04944249999243766
0	8.580464800004847	stim	213		2	ambiguous_practice	ambiguous_practice	0.0	preferred_right	300.0	0.0		14.668648399994709	0.050222499994561076
0	8.630687299999408	stim	214		2	ambiguous_practice	ambiguous_practice	0.0	preferred_right	300.0	0.0		14.71887089998927	0.06650019995868206
0	8.69718749995809	stim	215		2	ambiguous_practice	ambiguous_practice	0.0	preferred_right	300.0	0.0		14.785371099947952	0.0502017000108026
0	8.747389199968893	stim	216		2	ambiguous_practice	ambiguous_practice	0.0	preferred_right	300.0	0.0		14.835572799958754	0.06673369999043643
0	8.81412289995933	stim	217		2	ambiguous_practice	ambiguous_practice	0.0	preferred_right	300.0	0.0		14.90230649994919	0.04979360004654154
0	8.863916500005871	stim	218		2	ambiguous_practice	ambiguous_practice	0.0	preferred_right	300.0	0.0		14.952100099995732	0.05052429996430874
0	8.91444079997018	stim	219		2	ambiguous_practice	ambiguous_practice	0.0	preferred_right	300.0	0.0		15.002624399960041	0.04983390000415966
0	8.96427469997434	stim	220		2	ambiguous_practice	ambiguous_practice	0.0	preferred_right	300.0	0.0		15.0524582999642	0.049883400031831115
0	9.01415810000617	stim	221		2	ambiguous_practice	ambiguous_practice	0.0	preferred_right	300.0	0.0		15.102341699996032	0.05134810000890866
0	9.06550620001508	stim	222		2	ambiguous_practice	ambiguous_practice	0.0	preferred_right	300.0	0.0		15.15368980000494	0.06437789998017251
0	9.129884099995252	stim	223		2	ambiguous_practice	ambiguous_practice	0.0	preferred_right	300.0	0.0		15.218067699985113	0.05049759999383241
0	9.180381699989084	stim	224		2	ambiguous_practice	ambiguous_practice	0.0	preferred_right	300.0	0.0		15.268565299978945	0.05017260002205148
0	9.230554300011136	stim	225		2	ambiguous_practice	ambiguous_practice	0.0	preferred_right	300.0	0.0		15.318737900000997	0.0504734999849461
0	9.281027799996082	stim	226		2	ambiguous_practice	ambiguous_practice	0.0	preferred_right	300.0	0.0		15.369211399985943	0.049819700012449175
0	9.330847500008531	stim	227		2	ambiguous_practice	ambiguous_practice	0.0	preferred_right	300.0	0.0		15.419031099998392	0.05033579998416826
0	9.3811832999927	stim	228		2	ambiguous_practice	ambiguous_practice	0.0	preferred_right	300.0	0.0		15.46936689998256	0.050409600022248924
0	9.431592900014948	stim	229		2	ambiguous_practice	ambiguous_practice	0.0	preferred_right	300.0	0.0		15.51977650000481	0.049991299980320036
0	9.481584199995268	stim	230		2	ambiguous_practice	ambiguous_practice	0.0	preferred_right	300.0	0.0		15.56976779998513	0.0498836999759078
0	9.531467899971176	stim	231		2	ambiguous_practice	ambiguous_practice	0.0	preferred_right	300.0	0.0		15.619651499961037	0.04993610002566129
0	9.581403999996837	stim	232		2	ambiguous_practice	ambiguous_practice	0.0	preferred_right	300.0	0.0		15.669587599986698	0.05011660000309348
0	9.63152059999993	stim	233		2	ambiguous_practice	ambiguous_practice	0.0	preferred_right	300.0	0.0		15.719704199989792	0.05026639997959137
0	9.681786999979522	stim	234		2	ambiguous_practice	ambiguous_practice	0.0	preferred_right	300.0	0.0		15.769970599969383	0.05002920003607869
0	9.7318162000156	stim	235		2	ambiguous_practice	ambiguous_practice	0.0	preferred_right	300.0	0.0		15.819999800005462	0.05003479996230453
0	9.781850999977905	stim	236		2	ambiguous_practice	ambiguous_practice	0.0	preferred_right	300.0	0.0		15.870034599967767	0.05015209998236969
0	9.832003099960275	stim	237		2	ambiguous_practice	ambiguous_practice	0.0	preferred_right	300.0	0.0		15.920186699950136	0.05010640004184097
0	9.882109500002116	stim	238		2	ambiguous_practice	ambiguous_practice	0.0	preferred_right	300.0	0.0		15.970293099991977	0.05000429996289313
0	9.932113799965009	stim	239		2	ambiguous_practice	ambiguous_practice	0.0	preferred_right	300.0	0.0		16.02029739995487	0.05061790003674105
0	9.98273170000175	stim	240		2	ambiguous_practice	ambiguous_practice	0.0	preferred_right	300.0	0.0		16.07091529999161	0.050232899957336485
0	10.032964599959087	stim	241		2	ambiguous_practice	ambiguous_practice	0.0	preferred_right	300.0	0.0		16.121148199948948	0.049897000018972903
0	10.08286159997806	stim	242		2	ambiguous_practice	ambiguous_practice	0.0	preferred_right	300.0	0.0		16.17104519996792	0.0665525000076741
0	10.149414099985734	stim	243		2	ambiguous_practice	ambiguous_practice	0.0	preferred_right	300.0	0.0		16.237597699975595	0.04951209999853745
0	10.198926199984271	stim	244		2	ambiguous_practice	ambiguous_practice	0.0	preferred_right	300.0	0.0		16.287109799974132	0.05009129998506978
0	10.24901749996934	stim	245		2	ambiguous_practice	ambiguous_practice	0.0	preferred_right	300.0	0.0		16.337201099959202	0.05022650002501905
0	10.29924399999436	stim	246		2	ambiguous_practice	ambiguous_practice	0.0	preferred_right	300.0	0.0		16.38742759998422	0.050390199990943074
0	10.349634199985303	stim	247		2	ambiguous_practice	ambiguous_practice	0.0	preferred_right	300.0	0.0		16.437817799975164	0.05043629999272525
0	10.400070499978028	stim	248		2	ambiguous_practice	ambiguous_practice	0.0	preferred_right	300.0	0.0		16.48825409996789	0.05005800002254546
0	10.450128500000574	stim	249		2	ambiguous_practice	ambiguous_practice	0.0	preferred_right	300.0	0.0		16.538312099990435	0.050770899979397655
0	10.500899399979971	stim	250		2	ambiguous_practice	ambiguous_practice	0.0	preferred_right	300.0	0.0		16.589082999969833	0.050873000000137836
0	10.55177239998011	stim	251		2	ambiguous_practice	ambiguous_practice	0.0	preferred_right	300.0	0.0		16.63995599996997	0.04937130003236234
0	10.601143700012472	stim	252		2	ambiguous_practice	ambiguous_practice	0.0	preferred_right	300.0	0.0		16.689327300002333	0.06571609998354688
0	10.666859799996018	stim	253		2	ambiguous_practice	ambiguous_practice	0.0	preferred_right	300.0	0.0		16.75504339998588	0.05088519997661933
0	10.717744999972638	stim	254		2	ambiguous_practice	ambiguous_practice	0.0	preferred_right	300.0	0.0		16.8059285999625	0.05020430003060028
0	10.767949300003238	stim	255		2	ambiguous_practice	ambiguous_practice	0.0	preferred_right	300.0	0.0		16.8561328999931	0.0501881999662146
0	10.818137499969453	stim	256		2	ambiguous_practice	ambiguous_practice	0.0	preferred_right	300.0	0.0		16.906321099959314	0.04996440000832081
0	10.868101899977773	stim	257		2	ambiguous_practice	ambiguous_practice	0.0	preferred_right	300.0	0.0		16.956285499967635	0.049988800019491464
0	10.918090699997265	stim	258		2	ambiguous_practice	ambiguous_practice	0.0	preferred_right	300.0	0.0		17.006274299987126	0.05022199999075383
0	10.968312699988019	stim	259		2	ambiguous_practice	ambiguous_practice	0.0	preferred_right	300.0	0.0		17.05649629997788	0.049924799997825176
0	11.018237499985844	stim	260		2	ambiguous_practice	ambiguous_practice	0.0	preferred_right	300.0	0.0		17.106421099975705	0.050388499977998435
0	11.068625999963842	stim	261		2	ambiguous_practice	ambiguous_practice	0.0	preferred_right	300.0	0.0		17.156809599953704	0.06696110003395006
0	11.135587099997792	stim	262		2	ambiguous_practice	ambiguous_practice	0.0	preferred_right	300.0	0.0		17.223770699987654	0.05042959999991581
0	11.186016699997708	stim	263		2	ambiguous_practice	ambiguous_practice	0.0	preferred_right	300.0	0.0		17.27420029998757	0.06572670000605285
0	11.251743400003761	stim	264		2	ambiguous_practice	ambiguous_practice	0.0	preferred_right	300.0	0.0		17.339926999993622	0.06807739997748286
0	11.319820799981244	stim	265		2	ambiguous_practice	ambiguous_practice	0.0	preferred_right	300.0	0.0		17.408004399971105	0.0496430000057444
0	11.369463799986988	stim	266		2	ambiguous_practice	ambiguous_practice	0.0	preferred_right	300.0	0.0		17.45764739997685	0.049776799976825714
0	11.419240599963814	stim	267		2	ambiguous_practice	ambiguous_practice	0.0	preferred_right	300.0	0.0		17.507424199953675	0.06684189999941736
0	11.486082499963231	stim	268		2	ambiguous_practice	ambiguous_practice	0.0	preferred_right	300.0	0.0		17.574266099953093	0.050468500005081296
0	11.536550999968313	stim	269		2	ambiguous_practice	ambiguous_practice	0.0	preferred_right	300.0	0.0		17.624734599958174	0.06627499999012798
0	11.60282599995844	stim	270		2	ambiguous_practice	ambiguous_practice	0.0	preferred_right	300.0	0.0		17.691009599948302	0.050075900042429566
0	11.65290190000087	stim	271		2	ambiguous_practice	ambiguous_practice	0.0	preferred_right	300.0	0.0		17.74108549999073	0.06712889997288585
0	11.720030799973756	stim	272		2	ambiguous_practice	ambiguous_practice	0.0	preferred_right	300.0	0.0		17.808214399963617	0.05055730004096404
0	11.77058810001472	stim	273		2	ambiguous_practice	ambiguous_practice	0.0	preferred_right	300.0	0.0		17.85877170000458	0.049551599950063974
0	11.820139699964784	stim	274		2	ambiguous_practice	ambiguous_practice	0.0	preferred_right	300.0	0.0		17.908323299954645	0.06672810000600293
0	11.886867799970787	stim	275		2	ambiguous_practice	ambiguous_practice	0.0	preferred_right	300.0	0.0		17.97505139996065	0.05035710002994165
0	11.937224900000729	stim	276		2	ambiguous_practice	ambiguous_practice	0.0	preferred_right	300.0	0.0		18.02540849999059	0.04983099998207763
0	11.987055899982806	stim	277		2	ambiguous_practice	ambiguous_practice	0.0	preferred_right	300.0	0.0		18.075239499972668	0.04987799999071285
0	12.03693389997352	stim	278		2	ambiguous_practice	ambiguous_practice	0.0	preferred_right	300.0	0.0		18.12511749996338	0.05023699998855591
0	12.087170899962075	stim	279		2	ambiguous_practice	ambiguous_practice	0.0	preferred_right	300.0	0.0		18.175354499951936	0.050144400040153414
0	12.137315300002228	stim	280		2	ambiguous_practice	ambiguous_practice	0.0	preferred_right	300.0	0.0		18.22549889999209	0.050146900000981987
0	12.18746220000321	stim	281		2	ambiguous_practice	ambiguous_practice	0.0	preferred_right	300.0	0.0		18.27564579999307	0.06701509997947142
0	12.254477299982682	stim	282		2	ambiguous_practice	ambiguous_practice	0.0	preferred_right	300.0	0.0		18.342660899972543	0.05018359998939559
0	12.304660899972077	stim	283		2	ambiguous_practice	ambiguous_practice	0.0	preferred_right	300.0	0.0		18.39284449996194	0.0667867999873124
0	12.37144769995939	stim	284		2	ambiguous_practice	ambiguous_practice	0.0	preferred_right	300.0	0.0		18.45963129994925	0.05013260000851005
0	12.4215802999679	stim	285		2	ambiguous_practice	ambiguous_practice	0.0	preferred_right	300.0	0.0		18.50976389995776	0.0666510000010021
0	12.488231299968902	stim	286		2	ambiguous_practice	ambiguous_practice	0.0	preferred_right	300.0	0.0		18.576414899958763	0.06773390003945678
0	12.555965200008359	stim	287		2	ambiguous_practice	ambiguous_practice	0.0	preferred_right	300.0	0.0		18.64414879999822	0.049151299986988306
0	12.605116499995347	stim	288		2	ambiguous_practice	ambiguous_practice	0.0	preferred_right	300.0	0.0		18.69330009998521	0.06660839996766299
0	12.67172489996301	stim	289		2	ambiguous_practice	ambiguous_practice	0.0	preferred_right	300.0	0.0		18.75990849995287	0.06703340000240132
0	12.738758299965411	stim	290		2	ambiguous_practice	ambiguous_practice	0.0	preferred_right	300.0	0.0		18.826941899955273	0.0500086999963969
0	12.788766999961808	stim	291		2	ambiguous_practice	ambiguous_practice	0.0	preferred_right	300.0	0.0		18.87695059995167	0.06649910000851378
0	12.855266099970322	stim	292		2	ambiguous_practice	ambiguous_practice	0.0	preferred_right	300.0	0.0		18.943449699960183	0.06679340003756806
0	12.92205950000789	stim	293		2	ambiguous_practice	ambiguous_practice	0.0	preferred_right	300.0	0.0		19.01024309999775	0.06658769998466596
0	12.988647199992556	stim	294		2	ambiguous_practice	ambiguous_practice	0.0	preferred_right	300.0	0.0		19.076830799982417	0.050413599994499236
0	13.039060799987055	stim	295		2	ambiguous_practice	ambiguous_practice	0.0	preferred_right	300.0	0.0		19.127244399976917	0.06675230001565069
0	13.105813100002706	stim	296		2	ambiguous_practice	ambiguous_practice	0.0	preferred_right	300.0	0.0		19.193996699992567	0.05009699997026473
0	13.15591009997297	stim	297		2	ambiguous_practice	ambiguous_practice	0.0	preferred_right	300.0	0.0		19.244093699962832	0.05013280001003295
0	13.206042899983004	stim	298		2	ambiguous_practice	ambiguous_practice	0.0	preferred_right	300.0	0.0		19.294226499972865	0.05013260000851005
0	13.256175499991514	stim	299		2	ambiguous_practice	ambiguous_practice	0.0	preferred_right	300.0	0.0		19.344359099981375	0.0662045999779366
0	13.32238009996945	stim	0		2	unambiguous_practice	left_practice	0.0	preferred_right	103.0	0.0		19.41056369995931	0.06712200003676116
0	13.389502100006212	stim	1		2	unambiguous_practice	left_practice	0.0	preferred_right	103.0	0.0		19.477685699996073	0.04988379997666925
0	13.43938589998288	stim	2		2	unambiguous_practice	left_practice	0.0	preferred_right	103.0	0.0		19.527569499972742	0.050391600001603365
0	13.489777499984484	stim	3		2	unambiguous_practice	left_practice	0.0	preferred_right	103.0	0.0		19.577961099974345	0.0498158999835141
0	13.539593399967998	stim	4		2	unambiguous_practice	left_practice	0.0	preferred_right	103.0	0.0		19.62777699995786	0.0665768000180833
0	13.606170199986082	stim	5		2	unambiguous_practice	left_practice	0.0	preferred_right	103.0	0.0		19.694353799975943	0.06693839997751638
0	13.673108599963598	stim	6		2	unambiguous_practice	left_practice	0.0	preferred_right	103.0	0.0		19.76129219995346	0.0674904000479728
0	13.74059900001157	stim	7		2	unambiguous_practice	left_practice	0.0	preferred_right	103.0	0.0		19.828782600001432	0.06656749994726852
0	13.80716649995884	stim	8		2	unambiguous_practice	left_practice	0.0	preferred_right	103.0	0.0		19.8953500999487	0.06583030003821477
0	13.872996799997054	stim	9		2	unambiguous_practice	left_practice	0.0	preferred_right	103.0	0.0		19.961180399986915	0.05011830001603812
0	13.923115100013092	stim	10		2	unambiguous_practice	left_practice	0.0	preferred_right	103.0	0.0		20.011298700002953	0.051381099969148636
0	13.97449619998224	stim	11		2	unambiguous_practice	left_practice	0.0	preferred_right	103.0	0.0		20.062679799972102	0.06685489998199046
0	14.041351099964231	stim	12		2	unambiguous_practice	left_practice	0.0	preferred_right	103.0	0.0		20.129534699954093	0.0492765000090003
0	14.090627599973232	stim	13		2	unambiguous_practice	left_practice	0.0	preferred_right	103.0	0.0		20.178811199963093	0.06604549998883158
0	14.156673099962063	stim	14		2	unambiguous_practice	left_practice	0.0	preferred_right	103.0	0.0		20.244856699951924	0.04979410005034879
0	14.206467200012412	stim	15		2	unambiguous_practice	left_practice	0.0	preferred_right	103.0	0.0		20.294650800002273	0.051736699999310076
0	14.258203900011722	stim	16		2	unambiguous_practice	left_practice	0.0	preferred_right	103.0	0.0		20.346387500001583	0.06636949995299801
0	14.32457339996472	stim	17		2	unambiguous_practice	left_practice	0.0	preferred_right	103.0	0.0		20.41275699995458	0.06539639999391511
0	14.389969799958635	stim	18		2	unambiguous_practice	left_practice	0.0	preferred_right	103.0	0.0		20.478153399948496	0.0503006000071764
0	14.440270399965812	stim	19		2	unambiguous_practice	left_practice	0.0	preferred_right	103.0	0.0		20.528453999955673	0.032877599995117635
0	14.47314799996093	stim	20		2	unambiguous_practice	left_practice	0.0	preferred_right	103.0	0.0		20.56133159995079	0.03350680001312867
0	14.506654799974058	stim	21		2	unambiguous_practice	left_practice	0.0	preferred_right	103.0	0.0		20.59483839996392	0.03332710004178807
0	14.539981900015846	stim	22		2	unambiguous_practice	left_practice	0.0	preferred_right	103.0	0.0		20.628165500005707	0.03424859995720908
0	14.574230499973055	stim	23		2	unambiguous_practice	left_practice	0.0	preferred_right	103.0	0.0		20.662414099962916	0.049446500022895634
0	14.62367699999595	stim	24		2	unambiguous_practice	left_practice	0.0	preferred_right	103.0	0.0		20.711860599985812	0.04989149997709319
0	14.673568499973044	stim	25		2	unambiguous_practice	left_practice	0.0	preferred_right	103.0	0.0		20.761752099962905	0.050430100003723055
0	14.723998599976767	stim	26		2	unambiguous_practice	left_practice	0.0	preferred_right	103.0	0.0		20.812182199966628	0.05062689998885617
0	14.774625499965623	stim	27		2	unambiguous_practice	left_practice	0.0	preferred_right	103.0	0.0		20.862809099955484	0.049957700015511364
0	14.824583199981134	stim	28		2	unambiguous_practice	left_practice	0.0	preferred_right	103.0	0.0		20.912766799970996	0.049736600019969046
0	14.874319800001103	stim	29		2	unambiguous_practice	left_practice	0.0	preferred_right	103.0	0.0		20.962503399990965	0.05056979996152222
0	14.924889599962626	stim	30		2	unambiguous_practice	left_practice	0.0	preferred_right	103.0	0.0		21.013073199952487	0.04992550000315532
0	14.974815099965781	stim	31		2	unambiguous_practice	left_practice	0.0	preferred_right	103.0	0.0		21.062998699955642	0.050542700046207756
0	15.025357800011989	stim	32		2	unambiguous_practice	left_practice	0.0	preferred_right	103.0	0.0		21.11354140000185	0.049538199964445084
0	15.074895999976434	stim	33		2	unambiguous_practice	left_practice	0.0	preferred_right	103.0	0.0		21.163079599966295	0.05013460002373904
0	15.125030600000173	stim	34		2	unambiguous_practice	left_practice	0.0	preferred_right	103.0	0.0		21.213214199990034	0.05064839997794479
0	15.175678999978118	stim	35		2	unambiguous_practice	left_practice	0.0	preferred_right	103.0	0.0		21.26386259996798	0.04937160003464669
0	15.225050600012764	stim	36		2	unambiguous_practice	left_practice	0.0	preferred_right	103.0	0.0		21.313234200002626	0.05006619996856898
0	15.275116799981333	stim	37		2	unambiguous_practice	left_practice	0.0	preferred_right	103.0	0.0		21.363300399971195	0.049954499991144985
0	15.325071299972478	stim	38		2	unambiguous_practice	left_practice	0.0	preferred_right	103.0	0.0		21.41325489996234	0.05164260003948584
0	15.376713900011964	stim	39		2	unambiguous_practice	left_practice	0.0	preferred_right	103.0	0.0		21.464897500001825	0.04844719998072833
0	15.425161099992692	stim	40		2	unambiguous_practice	left_practice	0.0	preferred_right	103.0	0.0		21.513344699982554	0.049919100012630224
0	15.475080200005323	stim	41		2	unambiguous_practice	left_practice	0.0	preferred_right	103.0	0.0		21.563263799995184	0.049925100000109524
0	15.525005300005432	stim	42		2	unambiguous_practice	left_practice	0.0	preferred_right	103.0	0.0		21.613188899995293	0.05020870000589639
0	15.575214000011329	stim	43		2	unambiguous_practice	left_practice	0.0	preferred_right	103.0	0.0		21.66339760000119	0.049977199989371
0	15.6251912000007	stim	44		2	unambiguous_practice	left_practice	0.0	preferred_right	103.0	0.0		21.71337479999056	0.04978780000237748
0	15.674979000003077	stim	45		2	unambiguous_practice	left_practice	0.0	preferred_right	103.0	0.0		21.76316259999294	0.05011179996654391
0	15.725090799969621	stim	46		2	unambiguous_practice	left_practice	0.0	preferred_right	103.0	0.0		21.813274399959482	0.05012910004006699
0	15.775219900009688	stim	47		2	unambiguous_practice	left_practice	0.0	preferred_right	103.0	0.0		21.86340349999955	0.052744499989785254
0	15.827964399999473	stim	48		2	unambiguous_practice	left_practice	0.0	preferred_right	103.0	0.0		21.916147999989334	0.06690589996287599
0	15.89487029996235	stim	49		2	unambiguous_practice	left_practice	0.0	preferred_right	103.0	0.0		21.98305389995221	0.0476261000148952
0	15.942496399977244	stim	50		2	unambiguous_practice	left_practice	0.0	preferred_right	103.0	0.0		22.030679999967106	0.06924230000004172
0	16.011738699977286	stim	51		2	unambiguous_practice	left_practice	0.0	preferred_right	103.0	0.0		22.099922299967147	0.05013109999708831
0	16.061869799974374	stim	52		2	unambiguous_practice	left_practice	0.0	preferred_right	103.0	0.0		22.150053399964236	0.06661089998669922
0	16.128480699961074	stim	53		2	unambiguous_practice	left_practice	0.0	preferred_right	103.0	0.0		22.216664299950935	0.04768100002547726
0	16.17616169998655	stim	54		2	unambiguous_practice	left_practice	0.0	preferred_right	103.0	0.0		22.264345299976412	0.05258760001743212
0	16.228749300003983	stim	55		2	unambiguous_practice	left_practice	0.0	preferred_right	103.0	0.0		22.316932899993844	0.0499215999734588
0	16.278670899977442	stim	56		2	unambiguous_practice	left_practice	0.0	preferred_right	103.0	0.0		22.366854499967303	0.06753260002005845
0	16.3462034999975	stim	57		2	unambiguous_practice	left_practice	0.0	preferred_right	103.0	0.0		22.43438709998736	0.04911329998867586
0	16.395316799986176	stim	58		2	unambiguous_practice	left_practice	0.0	preferred_right	103.0	0.0		22.483500399976037	0.05011970002669841
0	16.445436500012875	stim	59		2	unambiguous_practice	left_practice	0.0	preferred_right	103.0	0.0		22.533620100002736	0.05038439994677901
0	16.495820899959654	stim	60		2	unambiguous_practice	left_practice	0.0	preferred_right	103.0	0.0		22.584004499949515	0.049904200015589595
0	16.545725099975243	stim	61		2	unambiguous_practice	left_practice	0.0	preferred_right	103.0	0.0		22.633908699965104	0.04982810001820326
0	16.595553199993446	stim	62		2	unambiguous_practice	left_practice	0.0	preferred_right	103.0	0.0		22.683736799983308	0.05002969998167828
0	16.645582899975125	stim	63		2	unambiguous_practice	left_practice	0.0	preferred_right	103.0	0.0		22.733766499964986	0.0499969000229612
0	16.695579799998086	stim	64		2	unambiguous_practice	left_practice	0.0	preferred_right	103.0	0.0		22.783763399987947	0.050225699960719794
0	16.745805499958806	stim	65		2	unambiguous_practice	left_practice	0.0	preferred_right	103.0	0.0		22.833989099948667	0.050227000028826296
0	16.796032499987632	stim	66		2	unambiguous_practice	left_practice	0.0	preferred_right	103.0	0.0		22.884216099977493	0.06588680000277236
0	16.861919299990404	stim	67		2	unambiguous_practice	left_practice	0.0	preferred_right	103.0	0.0		22.950102899980266	0.05009849998168647
0	16.91201779997209	stim	68		2	unambiguous_practice	left_practice	0.0	preferred_right	103.0	0.0		23.000201399961952	0.05021170002873987
0	16.96222950000083	stim	69		2	unambiguous_practice	left_practice	0.0	preferred_right	103.0	0.0		23.050413099990692	0.05103929998585954
0	17.01326879998669	stim	70		2	unambiguous_practice	left_practice	0.0	preferred_right	103.0	0.0		23.10145239997655	0.049444900010712445
0	17.062713699997403	stim	71		2	unambiguous_practice	left_practice	0.0	preferred_right	103.0	0.0		23.150897299987264	0.050970999989658594
0	17.11368469998706	stim	72		2	unambiguous_practice	left_practice	0.0	preferred_right	103.0	0.0		23.201868299976923	0.047634500020649284
0	17.16131920000771	stim	73		2	unambiguous_practice	left_practice	0.0	preferred_right	103.0	0.0		23.249502799997572	0.04999849997693673
0	17.211317699984647	stim	74		2	unambiguous_practice	left_practice	0.0	preferred_right	103.0	0.0		23.29950129997451	0.050068399985320866
0	17.261386099969968	stim	75		2	unambiguous_practice	left_practice	0.0	preferred_right	103.0	0.0		23.34956969995983	0.04988710000179708
0	17.311273199971765	stim	76		2	unambiguous_practice	left_practice	0.0	preferred_right	103.0	0.0		23.399456799961627	0.05000160000054166
0	17.361274799972307	stim	77		2	unambiguous_practice	left_practice	0.0	preferred_right	103.0	0.0		23.449458399962168	0.05015710002044216
0	17.41143189999275	stim	78		2	unambiguous_practice	left_practice	0.0	preferred_right	103.0	0.0		23.49961549998261	0.04998169996542856
0	17.461413599958178	stim	79		2	unambiguous_practice	left_practice	0.0	preferred_right	103.0	0.0		23.54959719994804	0.049885600048583
0	17.51129920000676	stim	80		2	unambiguous_practice	left_practice	0.0	preferred_right	103.0	0.0		23.599482799996622	0.04995069996220991
0	17.56124989996897	stim	81		2	unambiguous_practice	left_practice	0.0	preferred_right	103.0	0.0		23.649433499958832	0.05031369999051094
0	17.61156359995948	stim	82		2	unambiguous_practice	left_practice	0.0	preferred_right	103.0	0.0		23.699747199949343	0.050117600010707974
0	17.66168119997019	stim	83		2	unambiguous_practice	left_practice	0.0	preferred_right	103.0	0.0		23.74986479996005	0.049852200027089566
0	17.71153339999728	stim	84		2	unambiguous_practice	left_practice	0.0	preferred_right	103.0	0.0		23.79971699998714	0.050787199987098575
0	17.762320599984378	stim	85		2	unambiguous_practice	left_practice	0.0	preferred_right	103.0	0.0		23.85050419997424	0.05032069998560473
0	17.812641299969982	stim	86		2	unambiguous_practice	left_practice	0.0	preferred_right	103.0	0.0		23.900824899959844	0.049652200017590076
0	17.862293499987572	stim	87		2	unambiguous_practice	left_practice	0.0	preferred_right	103.0	0.0		23.950477099977434	0.05048470001202077
0	17.912778199999593	stim	88		2	unambiguous_practice	left_practice	0.0	preferred_right	103.0	0.0		24.000961799989454	0.0509761999710463
0	17.96375439997064	stim	89		2	unambiguous_practice	left_practice	0.0	preferred_right	103.0	0.0		24.0519379999605	0.050211100024171174
0	18.01396549999481	stim	90		2	unambiguous_practice	left_practice	0.0	preferred_right	103.0	0.0		24.102149099984672	0.04998499999055639
0	18.063950499985367	stim	91		2	unambiguous_practice	left_practice	0.0	preferred_right	103.0	0.0		24.15213409997523	0.06695439998293296
0	18.1309048999683	stim	92		2	unambiguous_practice	left_practice	0.0	preferred_right	103.0	0.0		24.21908849995816	0.05003209999995306
0	18.180936999968253	stim	93		2	unambiguous_practice	left_practice	0.0	preferred_right	103.0	0.0		24.269120599958114	0.04974220000440255
0	18.230679199972656	stim	94		2	unambiguous_practice	left_practice	0.0	preferred_right	103.0	0.0		24.318862799962517	0.050132500007748604
0	18.280811699980404	stim	95		2	unambiguous_practice	left_practice	0.0	preferred_right	103.0	0.0		24.368995299970265	0.05012580001493916
0	18.330937499995343	stim	96		2	unambiguous_practice	left_practice	0.0	preferred_right	103.0	0.0		24.419121099985205	0.06672950001666322
0	18.397667000012007	stim	97		2	unambiguous_practice	left_practice	0.0	preferred_right	103.0	0.0		24.485850600001868	0.05008069996256381
0	18.44774769997457	stim	98		2	unambiguous_practice	left_practice	0.0	preferred_right	103.0	0.0		24.53593129996443	0.050412499986123294
0	18.498160199960694	stim	99		2	unambiguous_practice	left_practice	0.0	preferred_right	103.0	0.0		24.586343799950555	0.04976260004332289
0	18.547922800004017	stim	100		2	unambiguous_practice	left_practice	0.0	preferred_right	103.0	0.0		24.636106399993878	0.05021419998956844
0	18.598136999993585	stim	101		2	unambiguous_practice	left_practice	0.0	preferred_right	103.0	0.0		24.686320599983446	0.04992089996812865
0	18.648057899961714	stim	102		2	unambiguous_practice	left_practice	0.0	preferred_right	103.0	0.0		24.736241499951575	0.05080130003625527
0	18.69885919999797	stim	0		2	unambiguous_practice	left_practice	0.0	preferred_right	93.0	103.0		24.78704279998783	0.04998010001145303
0	18.748839300009422	stim	1		2	unambiguous_practice	left_practice	0.0	preferred_right	93.0	103.0		24.837022899999283	0.04984279995551333
0	18.798682099964935	stim	2		2	unambiguous_practice	left_practice	0.0	preferred_right	93.0	103.0		24.886865699954797	0.05019199999514967
0	18.848874099960085	stim	3		2	unambiguous_practice	left_practice	0.0	preferred_right	93.0	103.0		24.937057699949946	0.06671650003409013
0	18.915590599994175	stim	4		2	unambiguous_practice	left_practice	0.0	preferred_right	93.0	103.0		25.003774199984036	0.06697729998268187
0	18.982567899976857	stim	5		2	unambiguous_practice	left_practice	0.0	preferred_right	93.0	103.0		25.07075149996672	0.049979900009930134
0	19.032547799986787	stim	6		2	unambiguous_practice	left_practice	0.0	preferred_right	93.0	103.0		25.12073139997665	0.05000240000663325
0	19.08255019999342	stim	7		2	unambiguous_practice	left_practice	0.0	preferred_right	93.0	103.0		25.17073379998328	0.04975229996489361
0	19.132302499958314	stim	8		2	unambiguous_practice	left_practice	0.0	preferred_right	93.0	103.0		25.220486099948175	0.05024820001563057
0	19.182550699973945	stim	9		2	unambiguous_practice	left_practice	0.0	preferred_right	93.0	103.0		25.270734299963806	0.0498105000006035
0	19.232361199974548	stim	10		2	unambiguous_practice	left_practice	0.0	preferred_right	93.0	103.0		25.32054479996441	0.05043629999272525
0	19.282797499967273	stim	11		2	unambiguous_practice	left_practice	0.0	preferred_right	93.0	103.0		25.370981099957135	0.0665529000107199
0	19.349350399977993	stim	12		2	unambiguous_practice	left_practice	0.0	preferred_right	93.0	103.0		25.437533999967854	0.06677929998841137
0	19.416129699966405	stim	13		2	unambiguous_practice	left_practice	0.0	preferred_right	93.0	103.0		25.504313299956266	0.05022910004481673
0	19.46635880001122	stim	14		2	unambiguous_practice	left_practice	0.0	preferred_right	93.0	103.0		25.554542400001083	0.0499267999548465
0	19.516285599966068	stim	15		2	unambiguous_practice	left_practice	0.0	preferred_right	93.0	103.0		25.60446919995593	0.04990310000721365
0	19.56618869997328	stim	16		2	unambiguous_practice	left_practice	0.0	preferred_right	93.0	103.0		25.654372299963143	0.04991960001643747
0	19.61610829998972	stim	17		2	unambiguous_practice	left_practice	0.0	preferred_right	93.0	103.0		25.70429189997958	0.05018289998406544
0	19.666291199973784	stim	18		2	unambiguous_practice	left_practice	0.0	preferred_right	93.0	103.0		25.754474799963646	0.06667199998628348
0	19.732963199960068	stim	19		2	unambiguous_practice	left_practice	0.0	preferred_right	93.0	103.0		25.82114679994993	0.050370700017083436
0	19.78333389997715	stim	20		2	unambiguous_practice	left_practice	0.0	preferred_right	93.0	103.0		25.871517499967013	0.049618199991527945
0	19.83295209996868	stim	21		2	unambiguous_practice	left_practice	0.0	preferred_right	93.0	103.0		25.92113569995854	0.0501893000327982
0	19.883141400001477	stim	22		2	unambiguous_practice	left_practice	0.0	preferred_right	93.0	103.0		25.97132499999134	0.04978949995711446
0	19.932930899958592	stim	23		2	unambiguous_practice	left_practice	0.0	preferred_right	93.0	103.0		26.021114499948453	0.05048730003181845
0	19.98341819999041	stim	24		2	unambiguous_practice	left_practice	0.0	preferred_right	93.0	103.0		26.07160179998027	0.0665525000076741
0	20.049970699998084	stim	25		2	unambiguous_practice	left_practice	0.0	preferred_right	93.0	103.0		26.138154299987946	0.050187300017569214
0	20.100158000015654	stim	26		2	unambiguous_practice	left_practice	0.0	preferred_right	93.0	103.0		26.188341600005515	0.06676899996818975
0	20.166926999983843	stim	27		2	unambiguous_practice	left_practice	0.0	preferred_right	93.0	103.0		26.255110599973705	0.05052280001109466
0	20.217449799994938	stim	28		2	unambiguous_practice	left_practice	0.0	preferred_right	93.0	103.0		26.3056333999848	0.04998229996999726
0	20.267432099964935	stim	29		2	unambiguous_practice	left_practice	0.0	preferred_right	93.0	103.0		26.355615699954797	0.05007400002796203
0	20.317506099992897	stim	30		2	unambiguous_practice	left_practice	0.0	preferred_right	93.0	103.0		26.40568969998276	0.04992700001457706
0	20.367433100007474	stim	31		2	unambiguous_practice	left_practice	0.0	preferred_right	93.0	103.0		26.455616699997336	0.06648729997687042
0	20.433920399984345	stim	32		2	unambiguous_practice	left_practice	0.0	preferred_right	93.0	103.0		26.522103999974206	0.05035849998239428
0	20.48427889996674	stim	33		2	unambiguous_practice	left_practice	0.0	preferred_right	93.0	103.0		26.5724624999566	0.04960250004660338
0	20.533881400013342	stim	34		2	unambiguous_practice	left_practice	0.0	preferred_right	93.0	103.0		26.622065000003204	0.050096799968741834
0	20.583978199982084	stim	35		2	unambiguous_practice	left_practice	0.0	preferred_right	93.0	103.0		26.672161799971946	0.06675860000541434
0	20.6507367999875	stim	36		2	unambiguous_practice	left_practice	0.0	preferred_right	93.0	103.0		26.73892039997736	0.06753130001015961
0	20.71826809999766	stim	37		2	unambiguous_practice	left_practice	0.0	preferred_right	93.0	103.0		26.80645169998752	0.04906729998765513
0	20.767335399985313	stim	38		2	unambiguous_practice	left_practice	0.0	preferred_right	93.0	103.0		26.855518999975175	0.05005760001949966
0	20.817393000004813	stim	39		2	unambiguous_practice	left_practice	0.0	preferred_right	93.0	103.0		26.905576599994674	0.049724799988325685
0	20.86711779999314	stim	40		2	unambiguous_practice	left_practice	0.0	preferred_right	93.0	103.0		26.955301399983	0.05104290001327172
0	20.91816070000641	stim	41		2	unambiguous_practice	left_practice	0.0	preferred_right	93.0	103.0		27.00634429999627	0.04913739999756217
0	20.967298100003973	stim	42		2	unambiguous_practice	left_practice	0.0	preferred_right	93.0	103.0		27.055481699993834	0.06658009998500347
0	21.033878199988976	stim	43		2	unambiguous_practice	left_practice	0.0	preferred_right	93.0	103.0		27.122061799978837	0.05007699999259785
0	21.083955199981574	stim	44		2	unambiguous_practice	left_practice	0.0	preferred_right	93.0	103.0		27.172138799971435	0.0665764000150375
0	21.15053159999661	stim	45		2	unambiguous_practice	left_practice	0.0	preferred_right	93.0	103.0		27.238715199986473	0.06714559998363256
0	21.217677199980244	stim	46		2	unambiguous_practice	left_practice	0.0	preferred_right	93.0	103.0		27.305860799970105	0.06546050001634285
0	21.283137699996587	stim	47		2	unambiguous_practice	left_practice	0.0	preferred_right	93.0	103.0		27.371321299986448	0.0497901999624446
0	21.33292789995903	stim	48		2	unambiguous_practice	left_practice	0.0	preferred_right	93.0	103.0		27.421111499948893	0.05081470002187416
0	21.383742599980906	stim	49		2	unambiguous_practice	left_practice	0.0	preferred_right	93.0	103.0		27.471926199970767	0.05011250003008172
0	21.433855100010987	stim	50		2	unambiguous_practice	left_practice	0.0	preferred_right	93.0	103.0		27.52203870000085	0.04999709996627644
0	21.483852199977264	stim	51		2	unambiguous_practice	left_practice	0.0	preferred_right	93.0	103.0		27.572035799967125	0.04974049999145791
0	21.53359269996872	stim	52		2	unambiguous_practice	left_practice	0.0	preferred_right	93.0	103.0		27.621776299958583	0.04979840002488345
0	21.583391099993605	stim	53		2	unambiguous_practice	left_practice	0.0	preferred_right	93.0	103.0		27.671574699983466	0.050518899981398135
0	21.633909999975003	stim	54		2	unambiguous_practice	left_practice	0.0	preferred_right	93.0	103.0		27.722093599964865	0.04997190000722185
0	21.683881899982225	stim	55		2	unambiguous_practice	left_practice	0.0	preferred_right	93.0	103.0		27.772065499972086	0.05053639999823645
0	21.73441829998046	stim	56		2	unambiguous_practice	left_practice	0.0	preferred_right	93.0	103.0		27.822601899970323	0.05027669999981299
0	21.784694999980275	stim	57		2	unambiguous_practice	left_practice	0.0	preferred_right	93.0	103.0		27.872878599970136	0.04995240003336221
0	21.834647400013637	stim	58		2	unambiguous_practice	left_practice	0.0	preferred_right	93.0	103.0		27.922831000003498	0.0499147999798879
0	21.884562199993525	stim	59		2	unambiguous_practice	left_practice	0.0	preferred_right	93.0	103.0		27.972745799983386	0.05019039998296648
0	21.93475259997649	stim	60		2	unambiguous_practice	left_practice	0.0	preferred_right	93.0	103.0		28.022936199966352	0.04998890002025291
0	21.984741499996744	stim	61		2	unambiguous_practice	left_practice	0.0	preferred_right	93.0	103.0		28.072925099986605	0.04972740000812337
0	22.034468900004867	stim	62		2	unambiguous_practice	left_practice	0.0	preferred_right	93.0	103.0		28.12265249999473	0.04997549997642636
0	22.084444399981294	stim	63		2	unambiguous_practice	left_practice	0.0	preferred_right	93.0	103.0		28.172627999971155	0.050334100029431283
0	22.134778500010725	stim	64		2	unambiguous_practice	left_practice	0.0	preferred_right	93.0	103.0		28.222962100000586	0.05035849998239428
0	22.18513699999312	stim	65		2	unambiguous_practice	left_practice	0.0	preferred_right	93.0	103.0		28.27332059998298	0.04981639998732135
0	22.23495339998044	stim	66		2	unambiguous_practice	left_practice	0.0	preferred_right	93.0	103.0		28.323136999970302	0.050161899998784065
0	22.285115299979225	stim	67		2	unambiguous_practice	left_practice	0.0	preferred_right	93.0	103.0		28.373298899969086	0.04961270000785589
0	22.33472799998708	stim	68		2	unambiguous_practice	left_practice	0.0	preferred_right	93.0	103.0		28.422911599976942	0.0504992000060156
0	22.385227199993096	stim	69		2	unambiguous_practice	left_practice	0.0	preferred_right	93.0	103.0		28.473410799982958	0.04994320002151653
0	22.435170400014613	stim	70		2	unambiguous_practice	left_practice	0.0	preferred_right	93.0	103.0		28.523354000004474	0.050078899948857725
0	22.48524929996347	stim	71		2	unambiguous_practice	left_practice	0.0	preferred_right	93.0	103.0		28.573432899953332	0.05030669999541715
0	22.535555999958888	stim	72		2	unambiguous_practice	left_practice	0.0	preferred_right	93.0	103.0		28.62373959994875	0.04974950000178069
0	22.58530549996067	stim	73		2	unambiguous_practice	left_practice	0.0	preferred_right	93.0	103.0		28.67348909995053	0.050406399997882545
0	22.63571189995855	stim	74		2	unambiguous_practice	left_practice	0.0	preferred_right	93.0	103.0		28.723895499948412	0.050059700035490096
0	22.68577159999404	stim	75		2	unambiguous_practice	left_practice	0.0	preferred_right	93.0	103.0		28.773955199983902	0.05080680001992732
0	22.73657840001397	stim	76		2	unambiguous_practice	left_practice	0.0	preferred_right	93.0	103.0		28.82476200000383	0.049302599974907935
0	22.785880999988876	stim	77		2	unambiguous_practice	left_practice	0.0	preferred_right	93.0	103.0		28.874064599978738	0.04950490000192076
0	22.835385899990797	stim	78		2	unambiguous_practice	left_practice	0.0	preferred_right	93.0	103.0		28.92356949998066	0.05027040001004934
0	22.885656300000846	stim	79		2	unambiguous_practice	left_practice	0.0	preferred_right	93.0	103.0		28.973839899990708	0.05031670001335442
0	22.9359730000142	stim	80		2	unambiguous_practice	left_practice	0.0	preferred_right	93.0	103.0		29.024156600004062	0.04955689999042079
0	22.98552990000462	stim	81		2	unambiguous_practice	left_practice	0.0	preferred_right	93.0	103.0		29.073713499994483	0.04999500000849366
0	23.035524900013115	stim	82		2	unambiguous_practice	left_practice	0.0	preferred_right	93.0	103.0		29.123708500002977	0.05018069996731356
0	23.08570559998043	stim	83		2	unambiguous_practice	left_practice	0.0	preferred_right	93.0	103.0		29.17388919997029	0.04967259999830276
0	23.13537819997873	stim	84		2	unambiguous_practice	left_practice	0.0	preferred_right	93.0	103.0		29.223561799968593	0.05036829999880865
0	23.18574649997754	stim	85		2	unambiguous_practice	left_practice	0.0	preferred_right	93.0	103.0		29.2739300999674	0.049880500009749085
0	23.23562699998729	stim	86		2	unambiguous_practice	left_practice	0.0	preferred_right	93.0	103.0		29.32381059997715	0.05080540000926703
0	23.286432399996556	stim	87		2	unambiguous_practice	left_practice	0.0	preferred_right	93.0	103.0		29.374615999986418	0.05043830000795424
0	23.33687070000451	stim	88		2	unambiguous_practice	left_practice	0.0	preferred_right	93.0	103.0		29.425054299994372	0.04985409998334944
0	23.38672479998786	stim	89		2	unambiguous_practice	left_practice	0.0	preferred_right	93.0	103.0		29.47490839997772	0.04989189998013899
0	23.436616699968	stim	90		2	unambiguous_practice	left_practice	0.0	preferred_right	93.0	103.0		29.52480029995786	0.0666878999909386
0	23.503304599958938	stim	91		2	unambiguous_practice	left_practice	0.0	preferred_right	93.0	103.0		29.5914881999488	0.050793200032785535
0	23.554097799991723	stim	92		2	unambiguous_practice	left_practice	0.0	preferred_right	93.0	103.0		29.642281399981584	0.049212299985811114
0	23.603310099977534	stim	0		2	unambiguous_practice	left_practice	0.0	preferred_right	101.0	6.0		29.691493699967396	0.05022670002654195
0	23.653536800004076	stim	1		2	unambiguous_practice	left_practice	0.0	preferred_right	101.0	6.0		29.741720399993937	0.06677919998764992
0	23.720315999991726	stim	2		2	unambiguous_practice	left_practice	0.0	preferred_right	101.0	6.0		29.808499599981587	0.050944100017659366
0	23.771260100009385	stim	3		2	unambiguous_practice	left_practice	0.0	preferred_right	101.0	6.0		29.859443699999247	0.048023699957411736
0	23.819283799966797	stim	4		2	unambiguous_practice	left_practice	0.0	preferred_right	101.0	6.0		29.90746739995666	0.0496994000277482
0	23.868983199994545	stim	5		2	unambiguous_practice	left_practice	0.0	preferred_right	101.0	6.0		29.957166799984407	0.05055390001507476
0	23.91953710000962	stim	6		2	unambiguous_practice	left_practice	0.0	preferred_right	101.0	6.0		30.00772069999948	0.04998769995290786
0	23.969524799962528	stim	7		2	unambiguous_practice	left_practice	0.0	preferred_right	101.0	6.0		30.05770839995239	0.0506662999978289
0	24.020191099960357	stim	8		2	unambiguous_practice	left_practice	0.0	preferred_right	101.0	6.0		30.108374699950218	0.05046980001498014
0	24.070660899975337	stim	9		2	unambiguous_practice	left_practice	0.0	preferred_right	101.0	6.0		30.1588444999652	0.05004589998861775
0	24.120706799963955	stim	10		2	unambiguous_practice	left_practice	0.0	preferred_right	101.0	6.0		30.208890399953816	0.04989429999841377
0	24.17060109996237	stim	11		2	unambiguous_practice	left_practice	0.0	preferred_right	101.0	6.0		30.25878469995223	0.04988570004934445
0	24.220486800011713	stim	12		2	unambiguous_practice	left_practice	0.0	preferred_right	101.0	6.0		30.308670400001574	0.050624099967535585
0	24.27111089997925	stim	13		2	unambiguous_practice	left_practice	0.0	preferred_right	101.0	6.0		30.35929449996911	0.06525370001327246
0	24.33636459999252	stim	14		2	unambiguous_practice	left_practice	0.0	preferred_right	101.0	6.0		30.424548199982382	0.05030050000641495
0	24.386665099998936	stim	15		2	unambiguous_practice	left_practice	0.0	preferred_right	101.0	6.0		30.474848699988797	0.050056700012646616
0	24.436721800011583	stim	16		2	unambiguous_practice	left_practice	0.0	preferred_right	101.0	6.0		30.524905400001444	0.05287989997304976
0	24.489601699984632	stim	17		2	unambiguous_practice	left_practice	0.0	preferred_right	101.0	6.0		30.577785299974494	0.04723319999175146
0	24.536834899976384	stim	18		2	unambiguous_practice	left_practice	0.0	preferred_right	101.0	6.0		30.625018499966245	0.03298329998506233
0	24.569818199961446	stim	19		2	unambiguous_practice	left_practice	0.0	preferred_right	101.0	6.0		30.658001799951307	0.03286500001559034
0	24.602683199977037	stim	20		2	unambiguous_practice	left_practice	0.0	preferred_right	101.0	6.0		30.690866799966898	0.03381460002856329
0	24.6364978000056	stim	21		2	unambiguous_practice	left_practice	0.0	preferred_right	101.0	6.0		30.72468139999546	0.03349339996930212
0	24.669991199974902	stim	22		2	unambiguous_practice	left_practice	0.0	preferred_right	101.0	6.0		30.758174799964763	0.05003220000071451
0	24.720023399975616	stim	23		2	unambiguous_practice	left_practice	0.0	preferred_right	101.0	6.0		30.808206999965478	0.05095579999033362
0	24.77097919996595	stim	24		2	unambiguous_practice	left_practice	0.0	preferred_right	101.0	6.0		30.85916279995581	0.050307299999985844
0	24.821286499965936	stim	25		2	unambiguous_practice	left_practice	0.0	preferred_right	101.0	6.0		30.909470099955797	0.06669070001225919
0	24.887977199978195	stim	26		2	unambiguous_practice	left_practice	0.0	preferred_right	101.0	6.0		30.976160799968056	0.05066960002295673
0	24.938646800001152	stim	27		2	unambiguous_practice	left_practice	0.0	preferred_right	101.0	6.0		31.026830399991013	0.06621719995746389
0	25.004863999958616	stim	28		2	unambiguous_practice	left_practice	0.0	preferred_right	101.0	6.0		31.093047599948477	0.05018050002399832
0	25.055044499982614	stim	29		2	unambiguous_practice	left_practice	0.0	preferred_right	101.0	6.0		31.143228099972475	0.06675499997800216
0	25.121799499960616	stim	30		2	unambiguous_practice	left_practice	0.0	preferred_right	101.0	6.0		31.209983099950477	0.050662700028624386
0	25.17246219998924	stim	31		2	unambiguous_practice	left_practice	0.0	preferred_right	101.0	6.0		31.260645799979102	0.04973919998155907
0	25.2222013999708	stim	32		2	unambiguous_practice	left_practice	0.0	preferred_right	101.0	6.0		31.31038499996066	0.0500274000223726
0	25.272228799993172	stim	33		2	unambiguous_practice	left_practice	0.0	preferred_right	101.0	6.0		31.360412399983034	0.05004980001831427
0	25.322278600011487	stim	34		2	unambiguous_practice	left_practice	0.0	preferred_right	101.0	6.0		31.410462200001348	0.049735299951862544
0	25.37201389996335	stim	35		2	unambiguous_practice	left_practice	0.0	preferred_right	101.0	6.0		31.46019749995321	0.049070200009737164
0	25.421084099973086	stim	36		2	unambiguous_practice	left_practice	0.0	preferred_right	101.0	6.0		31.509267699962948	0.049937000032514334
0	25.4710211000056	stim	37		2	unambiguous_practice	left_practice	0.0	preferred_right	101.0	6.0		31.559204699995462	0.05125509999925271
0	25.522276200004853	stim	38		2	unambiguous_practice	left_practice	0.0	preferred_right	101.0	6.0		31.610459799994715	0.06644019996747375
0	25.588716399972327	stim	39		2	unambiguous_practice	left_practice	0.0	preferred_right	101.0	6.0		31.67689999996219	0.06704270001500845
0	25.655759099987336	stim	40		2	unambiguous_practice	left_practice	0.0	preferred_right	101.0	6.0		31.743942699977197	0.06679140002233908
0	25.722550500009675	stim	41		2	unambiguous_practice	left_practice	0.0	preferred_right	101.0	6.0		31.810734099999536	0.065476999967359
0	25.788027499977034	stim	42		2	unambiguous_practice	left_practice	0.0	preferred_right	101.0	6.0		31.876211099966895	0.049954599991906434
0	25.83798209996894	stim	43		2	unambiguous_practice	left_practice	0.0	preferred_right	101.0	6.0		31.9261656999588	0.0501578000257723
0	25.888139899994712	stim	44		2	unambiguous_practice	left_practice	0.0	preferred_right	101.0	6.0		31.976323499984574	0.05012590001570061
0	25.938265800010413	stim	45		2	unambiguous_practice	left_practice	0.0	preferred_right	101.0	6.0		32.026449400000274	0.052665999974124134
0	25.990931799984537	stim	46		2	unambiguous_practice	left_practice	0.0	preferred_right	101.0	6.0		32.0791153999744	0.0652488999767229
0	26.05618069996126	stim	47		2	unambiguous_practice	left_practice	0.0	preferred_right	101.0	6.0		32.14436429995112	0.0500535000464879
0	26.106234200007748	stim	48		2	unambiguous_practice	left_practice	0.0	preferred_right	101.0	6.0		32.19441779999761	0.06822779995854944
0	26.174461999966297	stim	49		2	unambiguous_practice	left_practice	0.0	preferred_right	101.0	6.0		32.26264559995616	0.04833409999264404
0	26.22279609995894	stim	50		2	unambiguous_practice	left_practice	0.0	preferred_right	101.0	6.0		32.3109796999488	0.050812500005122274
0	26.273608599964064	stim	51		2	unambiguous_practice	left_practice	0.0	preferred_right	101.0	6.0		32.361792199953925	0.06636340002296492
0	26.33997199998703	stim	52		2	unambiguous_practice	left_practice	0.0	preferred_right	101.0	6.0		32.42815559997689	0.06698509998386726
0	26.406957099970896	stim	53		2	unambiguous_practice	left_practice	0.0	preferred_right	101.0	6.0		32.49514069996076	0.06685540004400536
0	26.4738125000149	stim	54		2	unambiguous_practice	left_practice	0.0	preferred_right	101.0	6.0		32.56199610000476	0.050069999997504056
0	26.523882500012405	stim	55		2	unambiguous_practice	left_practice	0.0	preferred_right	101.0	6.0		32.61206610000227	0.050506899948231876
0	26.574389399960637	stim	56		2	unambiguous_practice	left_practice	0.0	preferred_right	101.0	6.0		32.6625729999505	0.0659766000462696
0	26.640366000006907	stim	57		2	unambiguous_practice	left_practice	0.0	preferred_right	101.0	6.0		32.72854959999677	0.05064129998208955
0	26.691007299988996	stim	58		2	unambiguous_practice	left_practice	0.0	preferred_right	101.0	6.0		32.77919089997886	0.06794330000411719
0	26.758950599993113	stim	59		2	unambiguous_practice	left_practice	0.0	preferred_right	101.0	6.0		32.847134199982975	0.06586640002205968
0	26.824817000015173	stim	60		2	unambiguous_practice	left_practice	0.0	preferred_right	101.0	6.0		32.913000600005034	0.06589999998686835
0	26.89071700000204	stim	61		2	unambiguous_practice	left_practice	0.0	preferred_right	101.0	6.0		32.9789005999919	0.06771269999444485
0	26.958429699996486	stim	62		2	unambiguous_practice	left_practice	0.0	preferred_right	101.0	6.0		33.04661329998635	0.049056699965149164
0	27.007486399961635	stim	63		2	unambiguous_practice	left_practice	0.0	preferred_right	101.0	6.0		33.0956699999515	0.0504248000215739
0	27.05791119998321	stim	64		2	unambiguous_practice	left_practice	0.0	preferred_right	101.0	6.0		33.14609479997307	0.049748599994927645
0	27.107659799978137	stim	65		2	unambiguous_practice	left_practice	0.0	preferred_right	101.0	6.0		33.195843399968	0.05087380000622943
0	27.158533599984366	stim	66		2	unambiguous_practice	left_practice	0.0	preferred_right	101.0	6.0		33.24671719997423	0.04938470001798123
0	27.207918300002348	stim	67		2	unambiguous_practice	left_practice	0.0	preferred_right	101.0	6.0		33.29610189999221	0.05038929998409003
0	27.258307599986438	stim	68		2	unambiguous_practice	left_practice	0.0	preferred_right	101.0	6.0		33.3464911999763	0.04979800002183765
0	27.308105600008275	stim	69		2	unambiguous_practice	left_practice	0.0	preferred_right	101.0	6.0		33.39628919999814	0.04947789997095242
0	27.357583499979228	stim	70		2	unambiguous_practice	left_practice	0.0	preferred_right	101.0	6.0		33.44576709996909	0.06674799998290837
0	27.424331499962136	stim	71		2	unambiguous_practice	left_practice	0.0	preferred_right	101.0	6.0		33.512515099952	0.06772800005273893
0	27.492059500014875	stim	72		2	unambiguous_practice	left_practice	0.0	preferred_right	101.0	6.0		33.580243100004736	0.04833739995956421
0	27.54039689997444	stim	73		2	unambiguous_practice	left_practice	0.0	preferred_right	101.0	6.0		33.6285804999643	0.051083600032143295
0	27.591480500006583	stim	74		2	unambiguous_practice	left_practice	0.0	preferred_right	101.0	6.0		33.679664099996444	0.06746210000710562
0	27.658942600013688	stim	75		2	unambiguous_practice	left_practice	0.0	preferred_right	101.0	6.0		33.74712620000355	0.06573129998287186
0	27.72467389999656	stim	76		2	unambiguous_practice	left_practice	0.0	preferred_right	101.0	6.0		33.81285749998642	0.051269999996293336
0	27.775943899992853	stim	77		2	unambiguous_practice	left_practice	0.0	preferred_right	101.0	6.0		33.864127499982715	0.06589809997240081
0	27.841841999965254	stim	78		2	unambiguous_practice	left_practice	0.0	preferred_right	101.0	6.0		33.930025599955115	0.06688490003580227
0	27.908726900001056	stim	79		2	unambiguous_practice	left_practice	0.0	preferred_right	101.0	6.0		33.99691049999092	0.06681559997377917
0	27.975542499974836	stim	80		2	unambiguous_practice	left_practice	0.0	preferred_right	101.0	6.0		34.0637260999647	0.06690279999747872
0	28.042445299972314	stim	81		2	unambiguous_practice	left_practice	0.0	preferred_right	101.0	6.0		34.130628899962176	0.049979800009168684
0	28.092425099981483	stim	82		2	unambiguous_practice	left_practice	0.0	preferred_right	101.0	6.0		34.180608699971344	0.06970029999502003
0	28.162125399976503	stim	83		2	unambiguous_practice	left_practice	0.0	preferred_right	101.0	6.0		34.250308999966364	0.06657000002451241
0	28.228695400001016	stim	84		2	unambiguous_practice	left_practice	0.0	preferred_right	101.0	6.0		34.31687899999088	0.06677769997622818
0	28.295473099977244	stim	85		2	unambiguous_practice	left_practice	0.0	preferred_right	101.0	6.0		34.383656699967105	0.06457699998281896
0	28.360050099960063	stim	86		2	unambiguous_practice	left_practice	0.0	preferred_right	101.0	6.0		34.448233699949924	0.052356300002429634
0	28.412406399962492	stim	87		2	unambiguous_practice	left_practice	0.0	preferred_right	101.0	6.0		34.50058999995235	0.06645670003490523
0	28.478863099997398	stim	88		2	unambiguous_practice	left_practice	0.0	preferred_right	101.0	6.0		34.56704669998726	0.06685780000407249
0	28.54572090000147	stim	89		2	unambiguous_practice	left_practice	0.0	preferred_right	101.0	6.0		34.63390449999133	0.0639210999943316
0	28.6096419999958	stim	90		2	unambiguous_practice	left_practice	0.0	preferred_right	101.0	6.0		34.69782559998566	0.06909070000983775
0	28.67873270000564	stim	91		2	unambiguous_practice	left_practice	0.0	preferred_right	101.0	6.0		34.7669162999955	0.06696309999097139
0	28.74569579999661	stim	92		2	unambiguous_practice	left_practice	0.0	preferred_right	101.0	6.0		34.83387939998647	0.06501630001002923
0	28.81071210000664	stim	93		2	unambiguous_practice	left_practice	0.0	preferred_right	101.0	6.0		34.8988956999965	0.05229029996553436
0	28.863002399972174	stim	94		2	unambiguous_practice	left_practice	0.0	preferred_right	101.0	6.0		34.951185999962036	0.0677131999982521
0	28.930715599970426	stim	95		2	unambiguous_practice	left_practice	0.0	preferred_right	101.0	6.0		35.01889919996029	0.06341030000476167
0	28.994125899975188	stim	96		2	unambiguous_practice	left_practice	0.0	preferred_right	101.0	6.0		35.08230949996505	0.04999490000773221
0	29.04412079998292	stim	97		2	unambiguous_practice	left_practice	0.0	preferred_right	101.0	6.0		35.13230439997278	0.05055819998960942
0	29.09467899997253	stim	98		2	unambiguous_practice	left_practice	0.0	preferred_right	101.0	6.0		35.18286259996239	0.04941850004252046
0	29.14409750001505	stim	99		2	unambiguous_practice	left_practice	0.0	preferred_right	101.0	6.0		35.23228110000491	0.05033839994575828
0	29.19443589996081	stim	100		2	unambiguous_practice	left_practice	0.0	preferred_right	101.0	6.0		35.28261949995067	0.049521900014951825
0	29.24395779997576	stim	0		2	unambiguous_practice	left_practice	0.0	preferred_right	3.0	107.0		35.33214139996562	0.05082609999226406
0	29.294783899968024	stim	1		2	unambiguous_practice	left_practice	0.0	preferred_right	3.0	107.0		35.382967499957886	0.04947420000098646
0	29.34425809996901	stim	2		2	unambiguous_practice	left_practice	0.0	preferred_right	3.0	107.0		35.43244169995887	3.966953499999363
0	33.311211599968374	stim	0		0	break	break	0.0	preferred_right	1.0	0.0		39.399395199958235	0.08287550002569333
