trial_nr	onset	event_type	phase	response	nr_frames	block_type	trial_type	block_ID	response_hand	phase_length	last_frame	key_duration	onset_abs	duration
0	0.014732100011315197	stim	0		0	ambiguous_practice	ambiguous_practice	0.0	preferred_right	300.0	0.0		5.446534099988639	3.2060053999884985
0	3.2207374999998137	ambiguous_practice	0	space	1	ambiguous_practice	ambiguous_practice	0.0	preferred_right	300.0	0.0	0.1318394999834709	8.652539499977138	-3.139089000003878
0	0.08164849999593571	stim	1		2	ambiguous_practice	ambiguous_practice	0.0	preferred_right	300.0	0.0		5.51345049997326	0.035652799997478724
0	0.11730129999341443	stim	2		2	ambiguous_practice	ambiguous_practice	0.0	preferred_right	300.0	0.0		5.549103299970739	0.032902900013141334
0	0.15020420000655577	stim	3		0	ambiguous_practice	ambiguous_practice	0.0	preferred_right	300.0	0.0		5.58200619998388	3.997272599954158
0	4.147476799960714	ambiguous_practice	3	space	2	ambiguous_practice	ambiguous_practice	0.0	preferred_right	300.0	0.0	0.15840230003232136	9.579278799938038	-3.9489328999770805
0	0.1985438999836333	stim	4		2	ambiguous_practice	ambiguous_practice	0.0	preferred_right	300.0	0.0		5.6303458999609575	0.0350670000188984
0	0.2336109000025317	stim	5		2	ambiguous_practice	ambiguous_practice	0.0	preferred_right	300.0	0.0		5.665412899979856	0.033424400025978684
0	0.2670353000285104	stim	6		2	ambiguous_practice	ambiguous_practice	0.0	preferred_right	300.0	0.0		5.6988373000058345	0.032610700000077486
0	0.2996460000285879	stim	7		2	ambiguous_practice	ambiguous_practice	0.0	preferred_right	300.0	0.0		5.731448000005912	0.03323199995793402
0	0.3328779999865219	stim	8		2	ambiguous_practice	ambiguous_practice	0.0	preferred_right	300.0	0.0		5.764679999963846	0.03401310002664104
0	0.36689110001316294	stim	9		2	ambiguous_practice	ambiguous_practice	0.0	preferred_right	300.0	0.0		5.798693099990487	0.03355809999629855
0	0.4004492000094615	stim	10		2	ambiguous_practice	ambiguous_practice	0.0	preferred_right	300.0	0.0		5.832251199986786	0.032639099983498454
0	0.43308829999295995	stim	11		2	ambiguous_practice	ambiguous_practice	0.0	preferred_right	300.0	0.0		5.864890299970284	0.03392100002383813
0	0.4670093000167981	stim	12		2	ambiguous_practice	ambiguous_practice	0.0	preferred_right	300.0	0.0		5.898811299994122	0.033308700018096715
0	0.5003180000348948	stim	13		2	ambiguous_practice	ambiguous_practice	0.0	preferred_right	300.0	0.0		5.932120000012219	0.03262019995599985
0	0.5329381999908946	stim	14		2	ambiguous_practice	ambiguous_practice	0.0	preferred_right	300.0	0.0		5.964740199968219	0.05067650001728907
0	0.5836147000081837	stim	15		2	ambiguous_practice	ambiguous_practice	0.0	preferred_right	300.0	0.0		6.015416699985508	0.033555899979546666
0	0.6171705999877304	stim	16		2	ambiguous_practice	ambiguous_practice	0.0	preferred_right	300.0	0.0		6.0489725999650545	0.03358680004021153
0	0.6507574000279419	stim	17		2	ambiguous_practice	ambiguous_practice	0.0	preferred_right	300.0	0.0		6.082559400005266	0.032517599989660084
0	0.683275000017602	stim	18		2	ambiguous_practice	ambiguous_practice	0.0	preferred_right	300.0	0.0		6.115076999994926	0.03330920002190396
0	0.716584200039506	stim	19		2	ambiguous_practice	ambiguous_practice	0.0	preferred_right	300.0	0.0		6.14838620001683	0.033539799973368645
0	0.7501240000128746	stim	20		2	ambiguous_practice	ambiguous_practice	0.0	preferred_right	300.0	0.0		6.181925999990199	0.033555899979546666
0	0.7836798999924213	stim	21		2	ambiguous_practice	ambiguous_practice	0.0	preferred_right	300.0	0.0		6.215481899969745	0.03326779999770224
0	0.8169476999901235	stim	22		2	ambiguous_practice	ambiguous_practice	0.0	preferred_right	300.0	0.0		6.248749699967448	0.03334600001107901
0	0.8502937000012025	stim	23		2	ambiguous_practice	ambiguous_practice	0.0	preferred_right	300.0	0.0		6.282095699978527	0.033268800005316734
0	0.8835625000065193	stim	24		2	ambiguous_practice	ambiguous_practice	0.0	preferred_right	300.0	0.0		6.315364499983843	0.033653800026513636
0	0.9172163000330329	stim	25		2	ambiguous_practice	ambiguous_practice	0.0	preferred_right	300.0	0.0		6.349018300010357	0.03350809996481985
0	0.9507243999978527	stim	26		2	ambiguous_practice	ambiguous_practice	0.0	preferred_right	300.0	0.0		6.382526399975177	0.03333420003764331
0	0.9840586000354961	stim	27		2	ambiguous_practice	ambiguous_practice	0.0	preferred_right	300.0	0.0		6.41586060001282	0.03360239998437464
0	1.0176610000198707	stim	28		2	ambiguous_practice	ambiguous_practice	0.0	preferred_right	300.0	0.0		6.449462999997195	0.033426999987568706
0	1.0510880000074394	stim	29		2	ambiguous_practice	ambiguous_practice	0.0	preferred_right	300.0	0.0		6.482889999984764	0.03303340001730248
0	1.0841214000247419	stim	30		2	ambiguous_practice	ambiguous_practice	0.0	preferred_right	300.0	0.0		6.515923400002066	0.033472899987827986
0	1.1175943000125699	stim	31		2	ambiguous_practice	ambiguous_practice	0.0	preferred_right	300.0	0.0		6.549396299989894	0.03334969998104498
0	1.1509439999936149	stim	32		2	ambiguous_practice	ambiguous_practice	0.0	preferred_right	300.0	0.0		6.582745999970939	0.03339530003722757
0	1.1843393000308424	stim	33		2	ambiguous_practice	ambiguous_practice	0.0	preferred_right	300.0	0.0		6.616141300008167	0.04985009995289147
0	1.234189399983734	stim	34		2	ambiguous_practice	ambiguous_practice	0.0	preferred_right	300.0	0.0		6.665991399961058	0.03320900001563132
0	1.2673983999993652	stim	35		2	ambiguous_practice	ambiguous_practice	0.0	preferred_right	300.0	0.0		6.699200399976689	0.03379220003262162
0	1.3011906000319868	stim	36		2	ambiguous_practice	ambiguous_practice	0.0	preferred_right	300.0	0.0		6.732992600009311	0.03338899998925626
0	1.334579600021243	stim	37		2	ambiguous_practice	ambiguous_practice	0.0	preferred_right	300.0	0.0		6.766381599998567	0.03448139998363331
0	1.3690610000048764	stim	38		2	ambiguous_practice	ambiguous_practice	0.0	preferred_right	300.0	0.0		6.800862999982201	0.03303370001958683
0	1.4020947000244632	stim	39		2	ambiguous_practice	ambiguous_practice	0.0	preferred_right	300.0	0.0		6.833896700001787	0.033338300010655075
0	1.4354330000351183	stim	40		2	ambiguous_practice	ambiguous_practice	0.0	preferred_right	300.0	0.0		6.8672350000124425	0.03379079996375367
0	1.469223799998872	stim	41		2	ambiguous_practice	ambiguous_practice	0.0	preferred_right	300.0	0.0		6.901025799976196	0.0334473000257276
0	1.5026711000245996	stim	42		2	ambiguous_practice	ambiguous_practice	0.0	preferred_right	300.0	0.0		6.934473100001924	0.03309709997847676
0	1.5357682000030763	stim	43		2	ambiguous_practice	ambiguous_practice	0.0	preferred_right	300.0	0.0		6.9675701999804005	0.03326639998704195
0	1.5690345999901183	stim	44		2	ambiguous_practice	ambiguous_practice	0.0	preferred_right	300.0	0.0		7.0008365999674425	0.03351390000898391
0	1.6025484999991022	stim	45		2	ambiguous_practice	ambiguous_practice	0.0	preferred_right	300.0	0.0		7.034350499976426	0.050308800011407584
0	1.6528573000105098	stim	46		2	ambiguous_practice	ambiguous_practice	0.0	preferred_right	300.0	0.0		7.084659299987834	0.03383049997501075
0	1.6866877999855205	stim	47		2	ambiguous_practice	ambiguous_practice	0.0	preferred_right	300.0	0.0		7.118489799962845	0.033129400049801916
0	1.7198172000353225	stim	48		2	ambiguous_practice	ambiguous_practice	0.0	preferred_right	300.0	0.0		7.151619200012647	0.033421100000850856
0	1.7532383000361733	stim	49		2	ambiguous_practice	ambiguous_practice	0.0	preferred_right	300.0	0.0		7.1850403000134975	0.03318450000369921
0	1.7864228000398725	stim	50		2	ambiguous_practice	ambiguous_practice	0.0	preferred_right	300.0	0.0		7.218224800017197	0.033578299975488335
0	1.8200011000153609	stim	51		2	ambiguous_practice	ambiguous_practice	0.0	preferred_right	300.0	0.0		7.251803099992685	0.03311100002611056
0	1.8531121000414714	stim	52		2	ambiguous_practice	ambiguous_practice	0.0	preferred_right	300.0	0.0		7.284914100018796	0.03348569996887818
0	1.8865978000103496	stim	53		2	ambiguous_practice	ambiguous_practice	0.0	preferred_right	300.0	0.0		7.318399799987674	0.03349320002598688
0	1.9200910000363365	stim	54		2	ambiguous_practice	ambiguous_practice	0.0	preferred_right	300.0	0.0		7.351893000013661	0.033666999952401966
0	1.9537579999887384	stim	55		2	ambiguous_practice	ambiguous_practice	0.0	preferred_right	300.0	0.0		7.385559999966063	0.03286040003877133
0	1.9866184000275098	stim	56		2	ambiguous_practice	ambiguous_practice	0.0	preferred_right	300.0	0.0		7.418420400004834	0.03447259997483343
0	2.021091000002343	stim	57		2	ambiguous_practice	ambiguous_practice	0.0	preferred_right	300.0	0.0		7.452892999979667	0.03323950001504272
0	2.054330500017386	stim	58		2	ambiguous_practice	ambiguous_practice	0.0	preferred_right	300.0	0.0		7.48613249999471	0.033411099982913584
0	2.0877416000002995	stim	59		2	ambiguous_practice	ambiguous_practice	0.0	preferred_right	300.0	0.0		7.519543599977624	0.0335276999976486
0	2.121269299997948	stim	60		2	ambiguous_practice	ambiguous_practice	0.0	preferred_right	300.0	0.0		7.553071299975272	0.05035939998924732
0	2.1716286999871954	stim	61		2	ambiguous_practice	ambiguous_practice	0.0	preferred_right	300.0	0.0		7.60343069996452	0.03353950002929196
0	2.2051682000164874	stim	62		2	ambiguous_practice	ambiguous_practice	0.0	preferred_right	300.0	0.0		7.6369701999938115	0.03312129998812452
0	2.238289500004612	stim	63		2	ambiguous_practice	ambiguous_practice	0.0	preferred_right	300.0	0.0		7.670091499981936	0.03377059998456389
0	2.272060099989176	stim	64		2	ambiguous_practice	ambiguous_practice	0.0	preferred_right	300.0	0.0		7.7038620999665	0.05015070002991706
0	2.322210800019093	stim	65		2	ambiguous_practice	ambiguous_practice	0.0	preferred_right	300.0	0.0		7.754012799996417	0.03329150000354275
0	2.3555023000226356	stim	66		2	ambiguous_practice	ambiguous_practice	0.0	preferred_right	300.0	0.0		7.78730429999996	0.03326190001098439
0	2.38876420003362	stim	67		2	ambiguous_practice	ambiguous_practice	0.0	preferred_right	300.0	0.0		7.820566200010944	0.03345609997631982
0	2.42222030000994	stim	68		2	ambiguous_practice	ambiguous_practice	0.0	preferred_right	300.0	0.0		7.854022299987264	0.03308840002864599
0	2.455308700038586	stim	69		2	ambiguous_practice	ambiguous_practice	0.0	preferred_right	300.0	0.0		7.88711070001591	0.033628399949520826
0	2.4889370999881066	stim	70		2	ambiguous_practice	ambiguous_practice	0.0	preferred_right	300.0	0.0		7.920739099965431	0.033877700043376535
0	2.522814800031483	stim	71		2	ambiguous_practice	ambiguous_practice	0.0	preferred_right	300.0	0.0		7.954616800008807	0.03335099999094382
0	2.556165800022427	stim	72		2	ambiguous_practice	ambiguous_practice	0.0	preferred_right	300.0	0.0		7.987967799999751	0.033399000007193536
0	2.5895648000296205	stim	73		2	ambiguous_practice	ambiguous_practice	0.0	preferred_right	300.0	0.0		8.021366800006945	0.03332079999381676
0	2.6228856000234373	stim	74		2	ambiguous_practice	ambiguous_practice	0.0	preferred_right	300.0	0.0		8.054687600000761	0.03365309996297583
0	2.656538699986413	stim	75		2	ambiguous_practice	ambiguous_practice	0.0	preferred_right	300.0	0.0		8.088340699963737	0.033333800034597516
0	2.6898725000210106	stim	76		2	ambiguous_practice	ambiguous_practice	0.0	preferred_right	300.0	0.0		8.121674499998335	0.03331209998577833
0	2.723184600006789	stim	77		2	ambiguous_practice	ambiguous_practice	0.0	preferred_right	300.0	0.0		8.154986599984113	0.03338099998654798
0	2.756565599993337	stim	78		2	ambiguous_practice	ambiguous_practice	0.0	preferred_right	300.0	0.0		8.188367599970661	0.03344420000212267
0	2.7900097999954596	stim	79		2	ambiguous_practice	ambiguous_practice	0.0	preferred_right	300.0	0.0		8.221811799972784	0.03320599999278784
0	2.8232157999882475	stim	80		2	ambiguous_practice	ambiguous_practice	0.0	preferred_right	300.0	0.0		8.255017799965572	0.032899700046982616
0	2.85611550003523	stim	81		2	ambiguous_practice	ambiguous_practice	0.0	preferred_right	300.0	0.0		8.287917500012554	0.033405199996195734
0	2.889520700031426	stim	82		2	ambiguous_practice	ambiguous_practice	0.0	preferred_right	300.0	0.0		8.32132270000875	0.03415560000576079
0	2.9236763000371866	stim	83		2	ambiguous_practice	ambiguous_practice	0.0	preferred_right	300.0	0.0		8.35547830001451	0.03366600000299513
0	2.9573423000401817	stim	84		2	ambiguous_practice	ambiguous_practice	0.0	preferred_right	300.0	0.0		8.389144300017506	0.03343409998342395
0	2.9907764000236057	stim	85		2	ambiguous_practice	ambiguous_practice	0.0	preferred_right	300.0	0.0		8.42257840000093	0.0332662999862805
0	3.024042700009886	stim	86		2	ambiguous_practice	ambiguous_practice	0.0	preferred_right	300.0	0.0		8.45584469998721	0.033342799986712635
0	3.057385499996599	stim	87		2	ambiguous_practice	ambiguous_practice	0.0	preferred_right	300.0	0.0		8.489187499973923	0.03334530000574887
0	3.0907308000023477	stim	88		2	ambiguous_practice	ambiguous_practice	0.0	preferred_right	300.0	0.0		8.522532799979672	0.033181200036779046
0	3.1239120000391267	stim	89		2	ambiguous_practice	ambiguous_practice	0.0	preferred_right	300.0	0.0		8.55571400001645	0.03352149995043874
0	3.1574334999895655	stim	90		2	ambiguous_practice	ambiguous_practice	0.0	preferred_right	300.0	0.0		8.58923549996689	0.03332400001818314
0	3.1907575000077486	stim	91		2	ambiguous_practice	ambiguous_practice	0.0	preferred_right	300.0	0.0		8.622559499985073	0.03330479998840019
0	3.224062299996149	stim	92		2	ambiguous_practice	ambiguous_practice	0.0	preferred_right	300.0	0.0		8.655864299973473	0.03328880004119128
0	3.25735110003734	stim	93		2	ambiguous_practice	ambiguous_practice	0.0	preferred_right	300.0	0.0		8.689153100014664	0.03333449998172
0	3.29068560001906	stim	94		2	ambiguous_practice	ambiguous_practice	0.0	preferred_right	300.0	0.0		8.722487599996384	0.03330650000134483
0	3.323992100020405	stim	95		2	ambiguous_practice	ambiguous_practice	0.0	preferred_right	300.0	0.0		8.755794099997729	0.03314030001638457
0	3.3571324000367895	stim	96		2	ambiguous_practice	ambiguous_practice	0.0	preferred_right	300.0	0.0		8.788934400014114	0.03383829997619614
0	3.3909707000129856	stim	97		2	ambiguous_practice	ambiguous_practice	0.0	preferred_right	300.0	0.0		8.82277269999031	0.03352890000678599
0	3.4244996000197716	stim	98		2	ambiguous_practice	ambiguous_practice	0.0	preferred_right	300.0	0.0		8.856301599997096	0.03346209996379912
0	3.4579616999835707	stim	99		2	ambiguous_practice	ambiguous_practice	0.0	preferred_right	300.0	0.0		8.889763699960895	0.03325940005015582
0	3.4912211000337265	stim	100		2	ambiguous_practice	ambiguous_practice	0.0	preferred_right	300.0	0.0		8.92302310001105	0.03336010000202805
0	3.5245812000357546	stim	101		2	ambiguous_practice	ambiguous_practice	0.0	preferred_right	300.0	0.0		8.956383200013079	0.03327779995743185
0	3.5578589999931864	stim	102		2	ambiguous_practice	ambiguous_practice	0.0	preferred_right	300.0	0.0		8.98966099997051	0.033751500013750046
0	3.5916105000069365	stim	103		2	ambiguous_practice	ambiguous_practice	0.0	preferred_right	300.0	0.0		9.02341249998426	0.05035730003146455
0	3.641967800038401	stim	104		2	ambiguous_practice	ambiguous_practice	0.0	preferred_right	300.0	0.0		9.073769800015725	0.050029899983201176
0	3.691997700021602	stim	105		2	ambiguous_practice	ambiguous_practice	0.0	preferred_right	300.0	0.0		9.123799699998926	0.04992849996779114
0	3.7419261999893934	stim	106		2	ambiguous_practice	ambiguous_practice	0.0	preferred_right	300.0	0.0		9.173728199966718	0.05021190003026277
0	3.792138100019656	stim	107		2	ambiguous_practice	ambiguous_practice	0.0	preferred_right	300.0	0.0		9.22394009999698	0.049874599964823574
0	3.8420126999844797	stim	108		2	ambiguous_practice	ambiguous_practice	0.0	preferred_right	300.0	0.0		9.273814699961804	0.05057310004485771
0	3.8925858000293374	stim	109		2	ambiguous_practice	ambiguous_practice	0.0	preferred_right	300.0	0.0		9.324387800006662	0.04996390000451356
0	3.942549700033851	stim	110		2	ambiguous_practice	ambiguous_practice	0.0	preferred_right	300.0	0.0		9.374351700011175	0.05010079999919981
0	3.9926505000330508	stim	111		2	ambiguous_practice	ambiguous_practice	0.0	preferred_right	300.0	0.0		9.424452500010375	0.050133599957916886
0	4.042784099990968	stim	112		2	ambiguous_practice	ambiguous_practice	0.0	preferred_right	300.0	0.0		9.474586099968292	0.050187200016807765
0	4.092971300007775	stim	113		2	ambiguous_practice	ambiguous_practice	0.0	preferred_right	300.0	0.0		9.5247732999851	0.05030810000607744
0	4.143279400013853	stim	114		2	ambiguous_practice	ambiguous_practice	0.0	preferred_right	300.0	0.0		9.575081399991177	0.05040900001768023
0	4.193688400031533	stim	115		2	ambiguous_practice	ambiguous_practice	0.0	preferred_right	300.0	0.0		9.625490400008857	0.050087899959180504
0	4.243776299990714	stim	116		2	ambiguous_practice	ambiguous_practice	0.0	preferred_right	300.0	0.0		9.675578299968038	0.05012080003507435
0	4.293897100025788	stim	117		2	ambiguous_practice	ambiguous_practice	0.0	preferred_right	300.0	0.0		9.725699100003112	0.04970579996006563
0	4.343602899985854	stim	118		2	ambiguous_practice	ambiguous_practice	0.0	preferred_right	300.0	0.0		9.775404899963178	0.05032260000007227
0	4.393925499985926	stim	119		2	ambiguous_practice	ambiguous_practice	0.0	preferred_right	300.0	0.0		9.82572749996325	0.05027390003670007
0	4.444199400022626	stim	120		2	ambiguous_practice	ambiguous_practice	0.0	preferred_right	300.0	0.0		9.87600139999995	0.04997599998023361
0	4.4941754000028595	stim	121		2	ambiguous_practice	ambiguous_practice	0.0	preferred_right	300.0	0.0		9.925977399980184	0.05002070002956316
0	4.544196100032423	stim	122		2	ambiguous_practice	ambiguous_practice	0.0	preferred_right	300.0	0.0		9.975998100009747	0.050076099985744804
0	4.5942722000181675	stim	123		2	ambiguous_practice	ambiguous_practice	0.0	preferred_right	300.0	0.0		10.026074199995492	0.04978629999095574
0	4.644058500009123	stim	124		2	ambiguous_practice	ambiguous_practice	0.0	preferred_right	300.0	0.0		10.075860499986447	0.0504310000105761
0	4.694489500019699	stim	125		2	ambiguous_practice	ambiguous_practice	0.0	preferred_right	300.0	0.0		10.126291499997023	0.050203199964016676
0	4.744692699983716	stim	126		2	ambiguous_practice	ambiguous_practice	0.0	preferred_right	300.0	0.0		10.17649469996104	0.05015660001663491
0	4.794849300000351	stim	127		2	ambiguous_practice	ambiguous_practice	0.0	preferred_right	300.0	0.0		10.226651299977675	0.050327800039667636
0	4.845177100040019	stim	128		2	ambiguous_practice	ambiguous_practice	0.0	preferred_right	300.0	0.0		10.276979100017343	0.04995109996525571
0	4.895128200005274	stim	129		2	ambiguous_practice	ambiguous_practice	0.0	preferred_right	300.0	0.0		10.326930199982598	0.050021400034893304
0	4.945149600040168	stim	130		2	ambiguous_practice	ambiguous_practice	0.0	preferred_right	300.0	0.0		10.376951600017492	0.050815099966712296
0	4.99596470000688	stim	131		2	ambiguous_practice	ambiguous_practice	0.0	preferred_right	300.0	0.0		10.427766699984204	0.049193000013474375
0	5.045157700020354	stim	132		2	ambiguous_practice	ambiguous_practice	0.0	preferred_right	300.0	0.0		10.476959699997678	0.050218699965626
0	5.09537639998598	stim	133		2	ambiguous_practice	ambiguous_practice	0.0	preferred_right	300.0	0.0		10.527178399963304	0.05010330001823604
0	5.145479700004216	stim	134		2	ambiguous_practice	ambiguous_practice	0.0	preferred_right	300.0	0.0		10.57728169998154	0.050188500026706606
0	5.195668200030923	stim	135		2	ambiguous_practice	ambiguous_practice	0.0	preferred_right	300.0	0.0		10.627470200008247	0.04992580000543967
0	5.245594000036363	stim	136		2	ambiguous_practice	ambiguous_practice	0.0	preferred_right	300.0	0.0		10.677396000013687	0.050090699980501086
0	5.295684700016864	stim	137		2	ambiguous_practice	ambiguous_practice	0.0	preferred_right	300.0	0.0		10.727486699994188	0.049766500014811754
0	5.345451200031675	stim	138		2	ambiguous_practice	ambiguous_practice	0.0	preferred_right	300.0	0.0		10.777253200009	0.05114619998494163
0	5.396597400016617	stim	139		2	ambiguous_practice	ambiguous_practice	0.0	preferred_right	300.0	0.0		10.828399399993941	0.04942639998625964
0	5.446023800002877	stim	140		2	ambiguous_practice	ambiguous_practice	0.0	preferred_right	300.0	0.0		10.8778257999802	0.050096600025426596
0	5.496120400028303	stim	141		2	ambiguous_practice	ambiguous_practice	0.0	preferred_right	300.0	0.0		10.927922400005627	0.050180999969597906
0	5.546301399997901	stim	142		2	ambiguous_practice	ambiguous_practice	0.0	preferred_right	300.0	0.0		10.978103399975225	0.04993000003742054
0	5.596231400035322	stim	143		2	ambiguous_practice	ambiguous_practice	0.0	preferred_right	300.0	0.0		11.028033400012646	0.049551599950063974
0	5.645782999985386	stim	144		2	ambiguous_practice	ambiguous_practice	0.0	preferred_right	300.0	0.0		11.07758499996271	0.03339550003875047
0	5.679178500024136	stim	145		2	ambiguous_practice	ambiguous_practice	0.0	preferred_right	300.0	0.0		11.11098050000146	0.03335350000998005
0	5.712532000034116	stim	146		2	ambiguous_practice	ambiguous_practice	0.0	preferred_right	300.0	0.0		11.14433400001144	0.0351467999862507
0	5.747678800020367	stim	147		2	ambiguous_practice	ambiguous_practice	0.0	preferred_right	300.0	0.0		11.179480799997691	0.04998479998903349
0	5.7976636000094	stim	148		2	ambiguous_practice	ambiguous_practice	0.0	preferred_right	300.0	0.0		11.229465599986725	0.049548499984666705
0	5.847212099994067	stim	149		2	ambiguous_practice	ambiguous_practice	0.0	preferred_right	300.0	0.0		11.279014099971391	0.0669373000273481
0	5.914149400021415	stim	150		2	ambiguous_practice	ambiguous_practice	0.0	preferred_right	300.0	0.0		11.34595139999874	0.04961619997629896
0	5.963765599997714	stim	151		2	ambiguous_practice	ambiguous_practice	0.0	preferred_right	300.0	0.0		11.395567599975038	0.05086620000656694
0	6.014631800004281	stim	152		2	ambiguous_practice	ambiguous_practice	0.0	preferred_right	300.0	0.0		11.446433799981605	0.04905460000736639
0	6.0636864000116475	stim	153		2	ambiguous_practice	ambiguous_practice	0.0	preferred_right	300.0	0.0		11.495488399988972	0.04999039997346699
0	6.1136767999851145	stim	154		2	ambiguous_practice	ambiguous_practice	0.0	preferred_right	300.0	0.0		11.545478799962439	0.06577600003220141
0	6.179452800017316	stim	155		2	ambiguous_practice	ambiguous_practice	0.0	preferred_right	300.0	0.0		11.61125479999464	0.05043930001556873
0	6.229892100032885	stim	156		2	ambiguous_practice	ambiguous_practice	0.0	preferred_right	300.0	0.0		11.661694100010209	0.04979779996210709
0	6.279689899994992	stim	157		2	ambiguous_practice	ambiguous_practice	0.0	preferred_right	300.0	0.0		11.711491899972316	0.050077599997166544
0	6.329767499992158	stim	158		2	ambiguous_practice	ambiguous_practice	0.0	preferred_right	300.0	0.0		11.761569499969482	0.049942800018470734
0	6.379710300010629	stim	159		2	ambiguous_practice	ambiguous_practice	0.0	preferred_right	300.0	0.0		11.811512299987953	0.050228599982801825
0	6.429938899993431	stim	160		2	ambiguous_practice	ambiguous_practice	0.0	preferred_right	300.0	0.0		11.861740899970755	0.05012379999971017
0	6.480062699993141	stim	161		2	ambiguous_practice	ambiguous_practice	0.0	preferred_right	300.0	0.0		11.911864699970465	0.05178860004525632
0	6.531851300038397	stim	162		2	ambiguous_practice	ambiguous_practice	0.0	preferred_right	300.0	0.0		11.963653300015721	0.04915659996913746
0	6.581007900007535	stim	163		2	ambiguous_practice	ambiguous_practice	0.0	preferred_right	300.0	0.0		12.012809899984859	0.06682619999628514
0	6.64783410000382	stim	164		2	ambiguous_practice	ambiguous_practice	0.0	preferred_right	300.0	0.0		12.079636099981144	0.050448100024368614
0	6.6982822000281885	stim	165		2	ambiguous_practice	ambiguous_practice	0.0	preferred_right	300.0	0.0		12.130084200005513	0.049984099983703345
0	6.748266300011892	stim	166		2	ambiguous_practice	ambiguous_practice	0.0	preferred_right	300.0	0.0		12.180068299989216	0.04883260000497103
0	6.797098900016863	stim	167		2	ambiguous_practice	ambiguous_practice	0.0	preferred_right	300.0	0.0		12.228900899994187	0.049943999969400465
0	6.847042899986263	stim	168		2	ambiguous_practice	ambiguous_practice	0.0	preferred_right	300.0	0.0		12.278844899963588	0.050012400024570525
0	6.897055300010834	stim	169		2	ambiguous_practice	ambiguous_practice	0.0	preferred_right	300.0	0.0		12.328857299988158	0.05006899998988956
0	6.9471243000007235	stim	170		2	ambiguous_practice	ambiguous_practice	0.0	preferred_right	300.0	0.0		12.378926299978048	0.05003390001365915
0	6.997158200014383	stim	171		2	ambiguous_practice	ambiguous_practice	0.0	preferred_right	300.0	0.0		12.428960199991707	0.050863999989815056
0	7.048022200004198	stim	172		2	ambiguous_practice	ambiguous_practice	0.0	preferred_right	300.0	0.0		12.479824199981522	0.06556850002380088
0	7.1135907000279985	stim	173		2	ambiguous_practice	ambiguous_practice	0.0	preferred_right	300.0	0.0		12.545392700005323	0.05032380000920966
0	7.163914500037208	stim	174		2	ambiguous_practice	ambiguous_practice	0.0	preferred_right	300.0	0.0		12.595716500014532	0.05173059995286167
0	7.21564509999007	stim	175		2	ambiguous_practice	ambiguous_practice	0.0	preferred_right	300.0	0.0		12.647447099967394	0.06575090001570061
0	7.2813960000057705	stim	176		2	ambiguous_practice	ambiguous_practice	0.0	preferred_right	300.0	0.0		12.713197999983095	0.06544500001473352
0	7.346841000020504	stim	177		2	ambiguous_practice	ambiguous_practice	0.0	preferred_right	300.0	0.0		12.778642999997828	0.05023389996495098
0	7.397074899985455	stim	178		2	ambiguous_practice	ambiguous_practice	0.0	preferred_right	300.0	0.0		12.82887689996278	0.050113300036173314
0	7.447188200021628	stim	179		2	ambiguous_practice	ambiguous_practice	0.0	preferred_right	300.0	0.0		12.878990199998952	0.05024529999354854
0	7.497433500015177	stim	180		2	ambiguous_practice	ambiguous_practice	0.0	preferred_right	300.0	0.0		12.929235499992501	0.049836100020911545
0	7.547269600036088	stim	181		2	ambiguous_practice	ambiguous_practice	0.0	preferred_right	300.0	0.0		12.979071600013413	0.05267199996160343
0	7.599941599997692	stim	182		2	ambiguous_practice	ambiguous_practice	0.0	preferred_right	300.0	0.0		13.031743599975016	0.050541500037070364
0	7.650483100034762	stim	183		2	ambiguous_practice	ambiguous_practice	0.0	preferred_right	300.0	0.0		13.082285100012086	0.05022159998770803
0	7.70070470002247	stim	184		2	ambiguous_practice	ambiguous_practice	0.0	preferred_right	300.0	0.0		13.132506699999794	0.048028399993199855
0	7.74873310001567	stim	185		2	ambiguous_practice	ambiguous_practice	0.0	preferred_right	300.0	0.0		13.180535099992994	0.05056439997861162
0	7.799297499994282	stim	186		2	ambiguous_practice	ambiguous_practice	0.0	preferred_right	300.0	0.0		13.231099499971606	0.05184440000448376
0	7.851141899998765	stim	187		2	ambiguous_practice	ambiguous_practice	0.0	preferred_right	300.0	0.0		13.28294389997609	0.04827070003375411
0	7.8994126000325195	stim	188		2	ambiguous_practice	ambiguous_practice	0.0	preferred_right	300.0	0.0		13.331214600009844	0.05222479999065399
0	7.9516374000231735	stim	189		2	ambiguous_practice	ambiguous_practice	0.0	preferred_right	300.0	0.0		13.383439400000498	0.05015389999607578
0	8.00179130001925	stim	190		2	ambiguous_practice	ambiguous_practice	0.0	preferred_right	300.0	0.0		13.433593299996573	0.063759199983906
0	8.065550500003155	stim	191		2	ambiguous_practice	ambiguous_practice	0.0	preferred_right	300.0	0.0		13.49735249998048	0.052248099993448704
0	8.117798599996604	stim	192		2	ambiguous_practice	ambiguous_practice	0.0	preferred_right	300.0	0.0		13.549600599973928	0.0495006000273861
0	8.16729920002399	stim	193		2	ambiguous_practice	ambiguous_practice	0.0	preferred_right	300.0	0.0		13.599101200001314	0.0502810999751091
0	8.2175802999991	stim	194		2	ambiguous_practice	ambiguous_practice	0.0	preferred_right	300.0	0.0		13.649382299976423	0.050474499992560595
0	8.26805479999166	stim	195		2	ambiguous_practice	ambiguous_practice	0.0	preferred_right	300.0	0.0		13.699856799968984	0.04943660000571981
0	8.31749139999738	stim	196		2	ambiguous_practice	ambiguous_practice	0.0	preferred_right	300.0	0.0		13.749293399974704	0.04986150003969669
0	8.367352900037076	stim	197		2	ambiguous_practice	ambiguous_practice	0.0	preferred_right	300.0	0.0		13.7991549000144	0.049973499961197376
0	8.417326399998274	stim	198		2	ambiguous_practice	ambiguous_practice	0.0	preferred_right	300.0	0.0		13.849128399975598	0.05035880004288629
0	8.46768520004116	stim	199		2	ambiguous_practice	ambiguous_practice	0.0	preferred_right	300.0	0.0		13.899487200018484	0.04965449997689575
0	8.517339700018056	stim	200		2	ambiguous_practice	ambiguous_practice	0.0	preferred_right	300.0	0.0		13.94914169999538	0.05009490001248196
0	8.567434600030538	stim	201		2	ambiguous_practice	ambiguous_practice	0.0	preferred_right	300.0	0.0		13.999236600007862	0.05017750000115484
0	8.617612100031693	stim	202		2	ambiguous_practice	ambiguous_practice	0.0	preferred_right	300.0	0.0		14.049414100009017	0.05069319996982813
0	8.66830530000152	stim	203		2	ambiguous_practice	ambiguous_practice	0.0	preferred_right	300.0	0.0		14.100107299978845	0.049106999998912215
0	8.717412300000433	stim	204		2	ambiguous_practice	ambiguous_practice	0.0	preferred_right	300.0	0.0		14.149214299977757	0.04993300000205636
0	8.76734530000249	stim	205		2	ambiguous_practice	ambiguous_practice	0.0	preferred_right	300.0	0.0		14.199147299979813	0.04973159998189658
0	8.817076899984386	stim	206		2	ambiguous_practice	ambiguous_practice	0.0	preferred_right	300.0	0.0		14.24887889996171	0.05244400002993643
0	8.869520900014322	stim	207		2	ambiguous_practice	ambiguous_practice	0.0	preferred_right	300.0	0.0		14.301322899991646	0.0665150000131689
0	8.936035900027491	stim	208		2	ambiguous_practice	ambiguous_practice	0.0	preferred_right	300.0	0.0		14.367837900004815	0.05009739997331053
0	8.986133300000802	stim	209		2	ambiguous_practice	ambiguous_practice	0.0	preferred_right	300.0	0.0		14.417935299978126	0.05029330000979826
0	9.0364266000106	stim	210		2	ambiguous_practice	ambiguous_practice	0.0	preferred_right	300.0	0.0		14.468228599987924	0.06661580002401024
0	9.10304240003461	stim	211		2	ambiguous_practice	ambiguous_practice	0.0	preferred_right	300.0	0.0		14.534844400011934	0.04936819995054975
0	9.15241059998516	stim	212		2	ambiguous_practice	ambiguous_practice	0.0	preferred_right	300.0	0.0		14.584212599962484	0.050098100036848336
0	9.202508700022008	stim	213		2	ambiguous_practice	ambiguous_practice	0.0	preferred_right	300.0	0.0		14.634310699999332	0.04835669999010861
0	9.250865400012117	stim	214		2	ambiguous_practice	ambiguous_practice	0.0	preferred_right	300.0	0.0		14.682667399989441	0.05229459999827668
0	9.303160000010394	stim	215		2	ambiguous_practice	ambiguous_practice	0.0	preferred_right	300.0	0.0		14.734961999987718	0.049305699998512864
0	9.352465700008906	stim	216		2	ambiguous_practice	ambiguous_practice	0.0	preferred_right	300.0	0.0		14.78426769998623	0.0670416000066325
0	9.419507300015539	stim	217		2	ambiguous_practice	ambiguous_practice	0.0	preferred_right	300.0	0.0		14.851309299992863	0.05025640001986176
0	9.4697637000354	stim	218		2	ambiguous_practice	ambiguous_practice	0.0	preferred_right	300.0	0.0		14.901565700012725	0.05068879999453202
0	9.520452500029933	stim	219		2	ambiguous_practice	ambiguous_practice	0.0	preferred_right	300.0	0.0		14.952254500007257	0.06593979999888688
0	9.58639230002882	stim	220		2	ambiguous_practice	ambiguous_practice	0.0	preferred_right	300.0	0.0		15.018194300006144	0.04963500000303611
0	9.636027300031856	stim	221		2	ambiguous_practice	ambiguous_practice	0.0	preferred_right	300.0	0.0		15.06782930000918	0.05093629995826632
0	9.686963599990122	stim	222		2	ambiguous_practice	ambiguous_practice	0.0	preferred_right	300.0	0.0		15.118765599967446	0.04940540000097826
0	9.7363689999911	stim	223		2	ambiguous_practice	ambiguous_practice	0.0	preferred_right	300.0	0.0		15.168170999968424	0.04930380004225299
0	9.785672800033353	stim	224		2	ambiguous_practice	ambiguous_practice	0.0	preferred_right	300.0	0.0		15.217474800010677	0.06483329995535314
0	9.850506099988706	stim	225		2	ambiguous_practice	ambiguous_practice	0.0	preferred_right	300.0	0.0		15.28230809996603	0.050550400046631694
0	9.901056500035338	stim	226		2	ambiguous_practice	ambiguous_practice	0.0	preferred_right	300.0	0.0		15.332858500012662	0.052029999962542206
0	9.95308649999788	stim	227		2	ambiguous_practice	ambiguous_practice	0.0	preferred_right	300.0	0.0		15.384888499975204	0.04980229999637231
0	10.002888799994253	stim	228		2	ambiguous_practice	ambiguous_practice	0.0	preferred_right	300.0	0.0		15.434690799971577	0.05036120000295341
0	10.053249999997206	stim	229		2	ambiguous_practice	ambiguous_practice	0.0	preferred_right	300.0	0.0		15.48505199997453	0.06710300000850111
0	10.120353000005707	stim	230		2	ambiguous_practice	ambiguous_practice	0.0	preferred_right	300.0	0.0		15.552154999983031	0.0678059000056237
0	10.18815890001133	stim	231		2	ambiguous_practice	ambiguous_practice	0.0	preferred_right	300.0	0.0		15.619960899988655	0.06516619998728856
0	10.25332509999862	stim	232		2	ambiguous_practice	ambiguous_practice	0.0	preferred_right	300.0	0.0		15.685127099975944	0.06486939999740571
0	10.318194499996025	stim	233		2	ambiguous_practice	ambiguous_practice	0.0	preferred_right	300.0	0.0		15.74999649997335	0.05148010002449155
0	10.369674600020517	stim	234		2	ambiguous_practice	ambiguous_practice	0.0	preferred_right	300.0	0.0		15.80147659999784	0.050575500004924834
0	10.420250100025441	stim	235		2	ambiguous_practice	ambiguous_practice	0.0	preferred_right	300.0	0.0		15.852052100002766	0.049209399963729084
0	10.46945949998917	stim	236		2	ambiguous_practice	ambiguous_practice	0.0	preferred_right	300.0	0.0		15.901261499966495	0.05001570004969835
0	10.519475200038869	stim	237		2	ambiguous_practice	ambiguous_practice	0.0	preferred_right	300.0	0.0		15.951277200016193	0.05011839995859191
0	10.56959359999746	stim	238		2	ambiguous_practice	ambiguous_practice	0.0	preferred_right	300.0	0.0		16.001395599974785	0.04973329999484122
0	10.619326899992302	stim	239		2	ambiguous_practice	ambiguous_practice	0.0	preferred_right	300.0	0.0		16.051128899969626	0.05039520002901554
0	10.669722100021318	stim	240		2	ambiguous_practice	ambiguous_practice	0.0	preferred_right	300.0	0.0		16.10152409999864	0.06661799998255447
0	10.736340100003872	stim	241		2	ambiguous_practice	ambiguous_practice	0.0	preferred_right	300.0	0.0		16.168142099981196	0.050130699994042516
0	10.786470799997915	stim	242		2	ambiguous_practice	ambiguous_practice	0.0	preferred_right	300.0	0.0		16.21827279997524	0.0661736000329256
0	10.85264440003084	stim	243		2	ambiguous_practice	ambiguous_practice	0.0	preferred_right	300.0	0.0		16.284446400008164	0.05010659998515621
0	10.902751000015996	stim	244		2	ambiguous_practice	ambiguous_practice	0.0	preferred_right	300.0	0.0		16.33455299999332	0.04984009999316186
0	10.952591100009158	stim	245		2	ambiguous_practice	ambiguous_practice	0.0	preferred_right	300.0	0.0		16.384393099986482	0.05045709997648373
0	11.003048199985642	stim	246		2	ambiguous_practice	ambiguous_practice	0.0	preferred_right	300.0	0.0		16.434850199962966	0.06587320001563057
0	11.068921400001273	stim	247		2	ambiguous_practice	ambiguous_practice	0.0	preferred_right	300.0	0.0		16.500723399978597	0.050354500010143965
0	11.119275900011417	stim	248		2	ambiguous_practice	ambiguous_practice	0.0	preferred_right	300.0	0.0		16.55107789998874	0.0499343000119552
0	11.169210200023372	stim	249		2	ambiguous_practice	ambiguous_practice	0.0	preferred_right	300.0	0.0		16.601012200000696	0.04994359996635467
0	11.219153799989726	stim	250		2	ambiguous_practice	ambiguous_practice	0.0	preferred_right	300.0	0.0		16.65095579996705	0.05035370000405237
0	11.269507499993779	stim	251		2	ambiguous_practice	ambiguous_practice	0.0	preferred_right	300.0	0.0		16.701309499971103	0.049492200021632016
0	11.31899970001541	stim	252		2	ambiguous_practice	ambiguous_practice	0.0	preferred_right	300.0	0.0		16.750801699992735	0.05041560000972822
0	11.369415300025139	stim	253		2	ambiguous_practice	ambiguous_practice	0.0	preferred_right	300.0	0.0		16.801217300002463	0.04992540000239387
0	11.419340700027533	stim	254		2	ambiguous_practice	ambiguous_practice	0.0	preferred_right	300.0	0.0		16.851142700004857	0.05032119998941198
0	11.469661900016945	stim	255		2	ambiguous_practice	ambiguous_practice	0.0	preferred_right	300.0	0.0		16.90146389999427	0.04948450002120808
0	11.519146400038153	stim	256		2	ambiguous_practice	ambiguous_practice	0.0	preferred_right	300.0	0.0		16.950948400015477	0.05065439996542409
0	11.569800800003577	stim	257		2	ambiguous_practice	ambiguous_practice	0.0	preferred_right	300.0	0.0		17.0016027999809	0.05020820000208914
0	11.620009000005666	stim	258		2	ambiguous_practice	ambiguous_practice	0.0	preferred_right	300.0	0.0		17.05181099998299	0.05006320000393316
0	11.6700722000096	stim	259		2	ambiguous_practice	ambiguous_practice	0.0	preferred_right	300.0	0.0		17.101874199986923	0.05017729999963194
0	11.720249500009231	stim	260		2	ambiguous_practice	ambiguous_practice	0.0	preferred_right	300.0	0.0		17.152051499986555	0.05021600000327453
0	11.770465500012506	stim	261		2	ambiguous_practice	ambiguous_practice	0.0	preferred_right	300.0	0.0		17.20226749998983	0.05006310000317171
0	11.820528600015678	stim	262		2	ambiguous_practice	ambiguous_practice	0.0	preferred_right	300.0	0.0		17.252330599993	0.050266899983398616
0	11.870795499999076	stim	263		2	ambiguous_practice	ambiguous_practice	0.0	preferred_right	300.0	0.0		17.3025974999764	0.050363500020466745
0	11.921159000019543	stim	264		2	ambiguous_practice	ambiguous_practice	0.0	preferred_right	300.0	0.0		17.352960999996867	0.05021899996791035
0	11.971377999987453	stim	265		2	ambiguous_practice	ambiguous_practice	0.0	preferred_right	300.0	0.0		17.403179999964777	0.049791500030551106
0	12.021169500018004	stim	266		2	ambiguous_practice	ambiguous_practice	0.0	preferred_right	300.0	0.0		17.45297149999533	0.04965860000811517
0	12.07082810002612	stim	267		2	ambiguous_practice	ambiguous_practice	0.0	preferred_right	300.0	0.0		17.502630100003444	0.0503000000026077
0	12.121128100028727	stim	268		2	ambiguous_practice	ambiguous_practice	0.0	preferred_right	300.0	0.0		17.55293010000605	0.05010049999691546
0	12.171228600025643	stim	269		2	ambiguous_practice	ambiguous_practice	0.0	preferred_right	300.0	0.0		17.603030600002967	0.05026960000395775
0	12.2214982000296	stim	270		2	ambiguous_practice	ambiguous_practice	0.0	preferred_right	300.0	0.0		17.653300200006925	0.050068599986843765
0	12.271566800016444	stim	271		2	ambiguous_practice	ambiguous_practice	0.0	preferred_right	300.0	0.0		17.70336879999377	0.05004729999927804
0	12.321614100015722	stim	272		2	ambiguous_practice	ambiguous_practice	0.0	preferred_right	300.0	0.0		17.753416099993046	0.05014070001197979
0	12.371754800027702	stim	273		2	ambiguous_practice	ambiguous_practice	0.0	preferred_right	300.0	0.0		17.803556800005026	0.050046299991663545
0	12.421801100019366	stim	274		2	ambiguous_practice	ambiguous_practice	0.0	preferred_right	300.0	0.0		17.85360309999669	0.04992520000087097
0	12.471726300020237	stim	275		2	ambiguous_practice	ambiguous_practice	0.0	preferred_right	300.0	0.0		17.90352829999756	0.04988150001736358
0	12.5216078000376	stim	276		2	ambiguous_practice	ambiguous_practice	0.0	preferred_right	300.0	0.0		17.953409800014924	0.0495614999672398
0	12.57116930000484	stim	277		2	ambiguous_practice	ambiguous_practice	0.0	preferred_right	300.0	0.0		18.002971299982164	0.05166679999092594
0	12.622836099995766	stim	278		2	ambiguous_practice	ambiguous_practice	0.0	preferred_right	300.0	0.0		18.05463809997309	0.048702600004617125
0	12.671538700000383	stim	279		2	ambiguous_practice	ambiguous_practice	0.0	preferred_right	300.0	0.0		18.103340699977707	0.050480700039770454
0	12.722019400040153	stim	280		2	ambiguous_practice	ambiguous_practice	0.0	preferred_right	300.0	0.0		18.153821400017478	0.0501879999646917
0	12.772207400004845	stim	281		2	ambiguous_practice	ambiguous_practice	0.0	preferred_right	300.0	0.0		18.20400939998217	0.04971550003392622
0	12.821922900038771	stim	282		2	ambiguous_practice	ambiguous_practice	0.0	preferred_right	300.0	0.0		18.253724900016095	0.05608409998239949
0	12.87800700002117	stim	283		2	ambiguous_practice	ambiguous_practice	0.0	preferred_right	300.0	0.0		18.309808999998495	0.04435169999487698
0	12.922358700016048	stim	284		2	ambiguous_practice	ambiguous_practice	0.0	preferred_right	300.0	0.0		18.354160699993372	0.05000980000477284
0	12.97236850002082	stim	285		2	ambiguous_practice	ambiguous_practice	0.0	preferred_right	300.0	0.0		18.404170499998145	0.050225600018166006
0	13.022594100038987	stim	286		2	ambiguous_practice	ambiguous_practice	0.0	preferred_right	300.0	0.0		18.45439610001631	0.04959039995446801
0	13.072184499993455	stim	287		2	ambiguous_practice	ambiguous_practice	0.0	preferred_right	300.0	0.0		18.50398649997078	0.05018180003389716
0	13.122366300027352	stim	288		2	ambiguous_practice	ambiguous_practice	0.0	preferred_right	300.0	0.0		18.554168300004676	0.050089199969079345
0	13.172455499996431	stim	289		2	ambiguous_practice	ambiguous_practice	0.0	preferred_right	300.0	0.0		18.604257499973755	0.049915799987502396
0	13.222371299983934	stim	290		2	ambiguous_practice	ambiguous_practice	0.0	preferred_right	300.0	0.0		18.654173299961258	0.05011350003769621
0	13.27248480002163	stim	291		2	ambiguous_practice	ambiguous_practice	0.0	preferred_right	300.0	0.0		18.704286799998954	0.049765100004151464
0	13.322249900025781	stim	292		2	ambiguous_practice	ambiguous_practice	0.0	preferred_right	300.0	0.0		18.754051900003105	0.05029340001055971
0	13.372543300036341	stim	293		2	ambiguous_practice	ambiguous_practice	0.0	preferred_right	300.0	0.0		18.804345300013665	0.05034809996141121
0	13.422891399997752	stim	294		2	ambiguous_practice	ambiguous_practice	0.0	preferred_right	300.0	0.0		18.854693399975076	0.04979389999061823
0	13.47268529998837	stim	295		2	ambiguous_practice	ambiguous_practice	0.0	preferred_right	300.0	0.0		18.904487299965695	0.050007800047751516
0	13.522693100036122	stim	296		2	ambiguous_practice	ambiguous_practice	0.0	preferred_right	300.0	0.0		18.954495100013446	0.04975359997479245
0	13.572446700010914	stim	297		2	ambiguous_practice	ambiguous_practice	0.0	preferred_right	300.0	0.0		19.00424869998824	0.05044149997411296
0	13.622888199985027	stim	298		2	ambiguous_practice	ambiguous_practice	0.0	preferred_right	300.0	0.0		19.05469019996235	0.04999350005527958
0	13.672881700040307	stim	299		2	ambiguous_practice	ambiguous_practice	0.0	preferred_right	300.0	0.0		19.10468370001763	0.050105599977541715
0	13.722987300017849	stim	0		2	unambiguous_practice	left_practice	0.0	preferred_right	79.0	0.0		19.154789299995173	0.04999550001230091
0	13.77298280003015	stim	1		2	unambiguous_practice	left_practice	0.0	preferred_right	79.0	0.0		19.204784800007474	0.05007329996442422
0	13.823056099994574	stim	2		2	unambiguous_practice	left_practice	0.0	preferred_right	79.0	0.0		19.254858099971898	0.04982250003376976
0	13.872878600028343	stim	3		2	unambiguous_practice	left_practice	0.0	preferred_right	79.0	0.0		19.304680600005668	0.033337000000756234
0	13.9062156000291	stim	4		2	unambiguous_practice	left_practice	0.0	preferred_right	79.0	0.0		19.338017600006424	0.033416999969631433
0	13.939632599998731	stim	5		2	unambiguous_practice	left_practice	0.0	preferred_right	79.0	0.0		19.371434599976055	0.050240500015206635
0	13.989873100013938	stim	6		2	unambiguous_practice	left_practice	0.0	preferred_right	79.0	0.0		19.421675099991262	0.04956720001064241
0	14.03944030002458	stim	7		2	unambiguous_practice	left_practice	0.0	preferred_right	79.0	0.0		19.471242300001904	0.05029340001055971
0	14.08973370003514	stim	8		2	unambiguous_practice	left_practice	0.0	preferred_right	79.0	0.0		19.521535700012464	0.04995570000028238
0	14.139689400035422	stim	9		2	unambiguous_practice	left_practice	0.0	preferred_right	79.0	0.0		19.571491400012746	0.05007830000249669
0	14.189767700037919	stim	10		2	unambiguous_practice	left_practice	0.0	preferred_right	79.0	0.0		19.621569700015243	0.05028849997324869
0	14.240056200011168	stim	11		2	unambiguous_practice	left_practice	0.0	preferred_right	79.0	0.0		19.671858199988492	0.04973119997885078
0	14.289787399990018	stim	12		2	unambiguous_practice	left_practice	0.0	preferred_right	79.0	0.0		19.721589399967343	0.050262500008102506
0	14.340049899998121	stim	13		2	unambiguous_practice	left_practice	0.0	preferred_right	79.0	0.0		19.771851899975445	0.049969299987424165
0	14.390019199985545	stim	14		2	unambiguous_practice	left_practice	0.0	preferred_right	79.0	0.0		19.82182119996287	0.05204000003868714
0	14.442059200024232	stim	15		2	unambiguous_practice	left_practice	0.0	preferred_right	79.0	0.0		19.873861200001556	0.049204999988432974
0	14.491264200012665	stim	16		2	unambiguous_practice	left_practice	0.0	preferred_right	79.0	0.0		19.92306619998999	0.050295400025788695
0	14.541559600038454	stim	17		2	unambiguous_practice	left_practice	0.0	preferred_right	79.0	0.0		19.973361600015778	0.06763619999401271
0	14.609195800032467	stim	18		2	unambiguous_practice	left_practice	0.0	preferred_right	79.0	0.0		20.04099780000979	0.049363099969923496
0	14.65855890000239	stim	19		2	unambiguous_practice	left_practice	0.0	preferred_right	79.0	0.0		20.090360899979714	0.04998780001187697
0	14.708546700014267	stim	20		2	unambiguous_practice	left_practice	0.0	preferred_right	79.0	0.0		20.14034869999159	0.049978199996985495
0	14.758524900011253	stim	21		2	unambiguous_practice	left_practice	0.0	preferred_right	79.0	0.0		20.190326899988577	0.04973500000778586
0	14.808259900019038	stim	22		2	unambiguous_practice	left_practice	0.0	preferred_right	79.0	0.0		20.240061899996363	0.04934039997169748
0	14.857600299990736	stim	23		2	unambiguous_practice	left_practice	0.0	preferred_right	79.0	0.0		20.28940229996806	0.0515047000371851
0	14.909105000027921	stim	24		2	unambiguous_practice	left_practice	0.0	preferred_right	79.0	0.0		20.340907000005245	0.04969179996987805
0	14.958796799997799	stim	25		2	unambiguous_practice	left_practice	0.0	preferred_right	79.0	0.0		20.390598799975123	0.05009730003075674
0	15.008894100028556	stim	26		2	unambiguous_practice	left_practice	0.0	preferred_right	79.0	0.0		20.44069610000588	0.05004259996348992
0	15.058936699992046	stim	27		2	unambiguous_practice	left_practice	0.0	preferred_right	79.0	0.0		20.49073869996937	0.0664049000479281
0	15.125341600039974	stim	28		2	unambiguous_practice	left_practice	0.0	preferred_right	79.0	0.0		20.557143600017298	0.05005919997347519
0	15.175400800013449	stim	29		2	unambiguous_practice	left_practice	0.0	preferred_right	79.0	0.0		20.607202799990773	0.06757429998833686
0	15.242975100001786	stim	30		2	unambiguous_practice	left_practice	0.0	preferred_right	79.0	0.0		20.67477709997911	0.04977019998477772
0	15.292745299986564	stim	31		2	unambiguous_practice	left_practice	0.0	preferred_right	79.0	0.0		20.724547299963888	0.06658150005387142
0	15.359326800040435	stim	32		2	unambiguous_practice	left_practice	0.0	preferred_right	79.0	0.0		20.79112880001776	0.051225799950771034
0	15.410552599991206	stim	33		2	unambiguous_practice	left_practice	0.0	preferred_right	79.0	0.0		20.84235459996853	0.04972609999822453
0	15.46027869998943	stim	34		2	unambiguous_practice	left_practice	0.0	preferred_right	79.0	0.0		20.892080699966755	0.0497668000170961
0	15.510045500006527	stim	35		2	unambiguous_practice	left_practice	0.0	preferred_right	79.0	0.0		20.94184749998385	0.05002590001095086
0	15.560071400017478	stim	36		2	unambiguous_practice	left_practice	0.0	preferred_right	79.0	0.0		20.9918733999948	0.04891939996741712
0	15.608990799984895	stim	37		2	unambiguous_practice	left_practice	0.0	preferred_right	79.0	0.0		21.04079279996222	0.051042100007180125
0	15.660032899992075	stim	38		2	unambiguous_practice	left_practice	0.0	preferred_right	79.0	0.0		21.0918348999694	0.050611000042408705
0	15.710643900034484	stim	39		2	unambiguous_practice	left_practice	0.0	preferred_right	79.0	0.0		21.142445900011808	0.04981769999722019
0	15.760461600031704	stim	40		2	unambiguous_practice	left_practice	0.0	preferred_right	79.0	0.0		21.192263600009028	0.04876739997416735
0	15.809229000005871	stim	41		2	unambiguous_practice	left_practice	0.0	preferred_right	79.0	0.0		21.241030999983195	0.05010049999691546
0	15.859329500002787	stim	42		2	unambiguous_practice	left_practice	0.0	preferred_right	79.0	0.0		21.29113149998011	0.033410600037314
0	15.8927401000401	stim	43		2	unambiguous_practice	left_practice	0.0	preferred_right	79.0	0.0		21.324542100017425	0.05175099999178201
0	15.944491100031883	stim	44		2	unambiguous_practice	left_practice	0.0	preferred_right	79.0	0.0		21.376293100009207	0.04993709997506812
0	15.99442820000695	stim	45		2	unambiguous_practice	left_practice	0.0	preferred_right	79.0	0.0		21.426230199984275	0.05045460001565516
0	16.044882800022606	stim	46		2	unambiguous_practice	left_practice	0.0	preferred_right	79.0	0.0		21.47668479999993	0.06499009998515248
0	16.10987290000776	stim	47		2	unambiguous_practice	left_practice	0.0	preferred_right	79.0	0.0		21.541674899985082	0.050003600015770644
0	16.15987650002353	stim	48		2	unambiguous_practice	left_practice	0.0	preferred_right	79.0	0.0		21.591678500000853	0.05002339999191463
0	16.209899900015444	stim	49		2	unambiguous_practice	left_practice	0.0	preferred_right	79.0	0.0		21.641701899992768	0.049981000018306077
0	16.25988090003375	stim	50		2	unambiguous_practice	left_practice	0.0	preferred_right	79.0	0.0		21.691682900011074	0.05088880000403151
0	16.31076970003778	stim	51		2	unambiguous_practice	left_practice	0.0	preferred_right	79.0	0.0		21.742571700015105	0.06722219998482615
0	16.377991900022607	stim	52		2	unambiguous_practice	left_practice	0.0	preferred_right	79.0	0.0		21.80979389999993	0.04900220001582056
0	16.426994100038428	stim	53		2	unambiguous_practice	left_practice	0.0	preferred_right	79.0	0.0		21.858796100015752	0.050098099978640676
0	16.47709220001707	stim	54		2	unambiguous_practice	left_practice	0.0	preferred_right	79.0	0.0		21.908894199994393	0.050852300017140806
0	16.52794450003421	stim	55		2	unambiguous_practice	left_practice	0.0	preferred_right	79.0	0.0		21.959746500011533	0.04981309996219352
0	16.577757599996403	stim	56		2	unambiguous_practice	left_practice	0.0	preferred_right	79.0	0.0		22.009559599973727	0.06733690004330128
0	16.645094500039704	stim	57		2	unambiguous_practice	left_practice	0.0	preferred_right	79.0	0.0		22.07689650001703	0.04969989997334778
0	16.694794400013052	stim	58		2	unambiguous_practice	left_practice	0.0	preferred_right	79.0	0.0		22.126596399990376	0.04971420002402738
0	16.74450860003708	stim	59		2	unambiguous_practice	left_practice	0.0	preferred_right	79.0	0.0		22.176310600014403	0.0669678999693133
0	16.811476500006393	stim	60		2	unambiguous_practice	left_practice	0.0	preferred_right	79.0	0.0		22.243278499983717	0.06657030002679676
0	16.87804680003319	stim	61		2	unambiguous_practice	left_practice	0.0	preferred_right	79.0	0.0		22.309848800010514	0.04984589997911826
0	16.927892700012308	stim	62		2	unambiguous_practice	left_practice	0.0	preferred_right	79.0	0.0		22.35969469998963	0.06677350000245497
0	16.994666200014763	stim	63		2	unambiguous_practice	left_practice	0.0	preferred_right	79.0	0.0		22.426468199992087	0.06572269997559488
0	17.060388899990357	stim	64		2	unambiguous_practice	left_practice	0.0	preferred_right	79.0	0.0		22.49219089996768	0.05017460003728047
0	17.110563500027638	stim	65		2	unambiguous_practice	left_practice	0.0	preferred_right	79.0	0.0		22.542365500004962	0.05031269998289645
0	17.160876200010534	stim	66		2	unambiguous_practice	left_practice	0.0	preferred_right	79.0	0.0		22.59267819998786	0.05013029999099672
0	17.21100650000153	stim	67		2	unambiguous_practice	left_practice	0.0	preferred_right	79.0	0.0		22.642808499978855	0.04990929999621585
0	17.260915799997747	stim	68		2	unambiguous_practice	left_practice	0.0	preferred_right	79.0	0.0		22.69271779997507	0.050248000014107674
0	17.311163800011855	stim	69		2	unambiguous_practice	left_practice	0.0	preferred_right	79.0	0.0		22.74296579998918	0.05011100001865998
0	17.361274800030515	stim	70		2	unambiguous_practice	left_practice	0.0	preferred_right	79.0	0.0		22.79307680000784	0.05054490000475198
0	17.411819700035267	stim	71		2	unambiguous_practice	left_practice	0.0	preferred_right	79.0	0.0		22.84362170001259	0.050143899978138506
0	17.461963600013405	stim	72		2	unambiguous_practice	left_practice	0.0	preferred_right	79.0	0.0		22.89376559999073	0.049974000023212284
0	17.511937600036617	stim	73		2	unambiguous_practice	left_practice	0.0	preferred_right	79.0	0.0		22.94373960001394	0.05022319999989122
0	17.56216080003651	stim	74		2	unambiguous_practice	left_practice	0.0	preferred_right	79.0	0.0		22.993962800013833	0.050109799951314926
0	17.612270599987824	stim	75		2	unambiguous_practice	left_practice	0.0	preferred_right	79.0	0.0		23.044072599965148	0.0500274000223726
0	17.662298000010196	stim	76		2	unambiguous_practice	left_practice	0.0	preferred_right	79.0	0.0		23.09409999998752	0.050255400012247264
0	17.712553400022443	stim	77		2	unambiguous_practice	left_practice	0.0	preferred_right	79.0	0.0		23.144355399999768	0.049918800010345876
0	17.76247220003279	stim	78		2	unambiguous_practice	left_practice	0.0	preferred_right	79.0	0.0		23.194274200010113	0.05065399996237829
0	17.813126199995168	stim	0		2	unambiguous_practice	left_practice	0.0	preferred_right	84.0	79.0		23.24492819997249	0.03576200001407415
0	17.84888820000924	stim	1		2	unambiguous_practice	left_practice	0.0	preferred_right	84.0	79.0		23.280690199986566	0.031395900005009025
0	17.88028410001425	stim	2		2	unambiguous_practice	left_practice	0.0	preferred_right	84.0	79.0		23.312086099991575	0.035725100024137646
0	17.91600920003839	stim	3		2	unambiguous_practice	left_practice	0.0	preferred_right	84.0	79.0		23.347811200015713	0.033726699999533594
0	17.949735900037922	stim	4		2	unambiguous_practice	left_practice	0.0	preferred_right	84.0	79.0		23.381537900015246	0.03331549995345995
0	17.983051399991382	stim	5		2	unambiguous_practice	left_practice	0.0	preferred_right	84.0	79.0		23.414853399968706	0.0335039000492543
0	18.016555300040636	stim	6		2	unambiguous_practice	left_practice	0.0	preferred_right	84.0	79.0		23.44835730001796	0.03237789997365326
0	18.04893320001429	stim	7		2	unambiguous_practice	left_practice	0.0	preferred_right	84.0	79.0		23.480735199991614	0.03338149999035522
0	18.082314700004645	stim	8		2	unambiguous_practice	left_practice	0.0	preferred_right	84.0	79.0		23.51411669998197	0.034310200018808246
0	18.116624900023453	stim	9		2	unambiguous_practice	left_practice	0.0	preferred_right	84.0	79.0		23.548426900000777	0.03325939999194816
0	18.1498843000154	stim	10		2	unambiguous_practice	left_practice	0.0	preferred_right	84.0	79.0		23.581686299992725	0.03311860002577305
0	18.183002900041174	stim	11		2	unambiguous_practice	left_practice	0.0	preferred_right	84.0	79.0		23.6148049000185	0.03364769998006523
0	18.21665060002124	stim	12		2	unambiguous_practice	left_practice	0.0	preferred_right	84.0	79.0		23.648452599998564	0.033213999995496124
0	18.249864600016735	stim	13		2	unambiguous_practice	left_practice	0.0	preferred_right	84.0	79.0		23.68166659999406	0.03343720000702888
0	18.283301800023764	stim	14		2	unambiguous_practice	left_practice	0.0	preferred_right	84.0	79.0		23.71510380000109	0.03242090001003817
0	18.315722700033803	stim	15		2	unambiguous_practice	left_practice	0.0	preferred_right	84.0	79.0		23.747524700011127	0.03409769997233525
0	18.349820400006138	stim	16		2	unambiguous_practice	left_practice	0.0	preferred_right	84.0	79.0		23.781622399983462	0.0332609000033699
0	18.383081300009508	stim	17		2	unambiguous_practice	left_practice	0.0	preferred_right	84.0	79.0		23.814883299986832	0.033489599998574704
0	18.416570900008082	stim	18		2	unambiguous_practice	left_practice	0.0	preferred_right	84.0	79.0		23.848372899985407	0.0333968999912031
0	18.449967799999285	stim	19		2	unambiguous_practice	left_practice	0.0	preferred_right	84.0	79.0		23.88176979997661	0.03334920003544539
0	18.48331700003473	stim	20		2	unambiguous_practice	left_practice	0.0	preferred_right	84.0	79.0		23.915119000012055	0.03331679996335879
0	18.51663379999809	stim	21		2	unambiguous_practice	left_practice	0.0	preferred_right	84.0	79.0		23.948435799975414	0.03239970002323389
0	18.549033500021324	stim	22		2	unambiguous_practice	left_practice	0.0	preferred_right	84.0	79.0		23.980835499998648	0.03390390001004562
0	18.58293740003137	stim	23		2	unambiguous_practice	left_practice	0.0	preferred_right	84.0	79.0		24.014739400008693	0.033473099989350885
0	18.61641050002072	stim	24		2	unambiguous_practice	left_practice	0.0	preferred_right	84.0	79.0		24.048212499998044	0.033470099966507405
0	18.649880599987227	stim	25		2	unambiguous_practice	left_practice	0.0	preferred_right	84.0	79.0		24.08168259996455	0.03382250003051013
0	18.683703100017738	stim	26		2	unambiguous_practice	left_practice	0.0	preferred_right	84.0	79.0		24.11550509999506	0.03359349997481331
0	18.71729659999255	stim	27		2	unambiguous_practice	left_practice	0.0	preferred_right	84.0	79.0		24.149098599969875	0.033262800017837435
0	18.75055940001039	stim	28		2	unambiguous_practice	left_practice	0.0	preferred_right	84.0	79.0		24.182361399987713	0.033244999998714775
0	18.783804400009103	stim	29		2	unambiguous_practice	left_practice	0.0	preferred_right	84.0	79.0		24.215606399986427	0.03284120000898838
0	18.81664560001809	stim	30		2	unambiguous_practice	left_practice	0.0	preferred_right	84.0	79.0		24.248447599995416	0.03382229997077957
0	18.85046789998887	stim	31		2	unambiguous_practice	left_practice	0.0	preferred_right	84.0	79.0		24.282269899966195	0.03340549999848008
0	18.88387339998735	stim	32		2	unambiguous_practice	left_practice	0.0	preferred_right	84.0	79.0		24.315675399964675	0.033407800015993416
0	18.917281200003345	stim	33		2	unambiguous_practice	left_practice	0.0	preferred_right	84.0	79.0		24.34908319998067	0.03314459999091923
0	18.950425799994264	stim	34		2	unambiguous_practice	left_practice	0.0	preferred_right	84.0	79.0		24.382227799971588	0.033387100032996386
0	18.98381290002726	stim	35		2	unambiguous_practice	left_practice	0.0	preferred_right	84.0	79.0		24.415614900004584	0.03351929999189451
0	19.017332200019155	stim	36		2	unambiguous_practice	left_practice	0.0	preferred_right	84.0	79.0		24.44913419999648	0.033620800008066
0	19.05095300002722	stim	37		2	unambiguous_practice	left_practice	0.0	preferred_right	84.0	79.0		24.482755000004545	0.03294139995705336
0	19.083894399984274	stim	38		2	unambiguous_practice	left_practice	0.0	preferred_right	84.0	79.0		24.515696399961598	0.03380850004032254
0	19.117702900024597	stim	39		2	unambiguous_practice	left_practice	0.0	preferred_right	84.0	79.0		24.54950490000192	0.0496489999932237
0	19.16735190001782	stim	40		2	unambiguous_practice	left_practice	0.0	preferred_right	84.0	79.0		24.599153899995144	0.05024840001715347
0	19.217600300034974	stim	41		2	unambiguous_practice	left_practice	0.0	preferred_right	84.0	79.0		24.649402300012298	0.04987349995644763
0	19.26747379999142	stim	42		2	unambiguous_practice	left_practice	0.0	preferred_right	84.0	79.0		24.699275799968746	0.04993780003860593
0	19.317411600030027	stim	43		2	unambiguous_practice	left_practice	0.0	preferred_right	84.0	79.0		24.74921360000735	0.05027559999143705
0	19.367687200021464	stim	44		2	unambiguous_practice	left_practice	0.0	preferred_right	84.0	79.0		24.79948919999879	0.050547199964057654
0	19.418234399985522	stim	45		2	unambiguous_practice	left_practice	0.0	preferred_right	84.0	79.0		24.850036399962846	0.0501269000233151
0	19.468361300008837	stim	46		2	unambiguous_practice	left_practice	0.0	preferred_right	84.0	79.0		24.90016329998616	0.050037499982863665
0	19.5183987999917	stim	47		2	unambiguous_practice	left_practice	0.0	preferred_right	84.0	79.0		24.950200799969025	0.04959260002942756
0	19.56799140002113	stim	48		2	unambiguous_practice	left_practice	0.0	preferred_right	84.0	79.0		24.999793399998453	0.050351399986539036
0	19.618342800007667	stim	49		2	unambiguous_practice	left_practice	0.0	preferred_right	84.0	79.0		25.05014479998499	0.05002010002499446
0	19.668362900032662	stim	50		2	unambiguous_practice	left_practice	0.0	preferred_right	84.0	79.0		25.100164900009986	0.05015249998541549
0	19.718515400018077	stim	51		2	unambiguous_practice	left_practice	0.0	preferred_right	84.0	79.0		25.1503173999954	0.05004170001484454
0	19.768557100032922	stim	52		2	unambiguous_practice	left_practice	0.0	preferred_right	84.0	79.0		25.200359100010246	0.0495439000078477
0	19.81810100004077	stim	53		2	unambiguous_practice	left_practice	0.0	preferred_right	84.0	79.0		25.249903000018094	0.050491999951191247
0	19.86859299999196	stim	54		2	unambiguous_practice	left_practice	0.0	preferred_right	84.0	79.0		25.300394999969285	0.05002100003184751
0	19.91861400002381	stim	55		2	unambiguous_practice	left_practice	0.0	preferred_right	84.0	79.0		25.350416000001132	0.049941200006287545
0	19.968555200030096	stim	56		2	unambiguous_practice	left_practice	0.0	preferred_right	84.0	79.0		25.40035720000742	0.05141729995375499
0	20.01997249998385	stim	57		2	unambiguous_practice	left_practice	0.0	preferred_right	84.0	79.0		25.451774499961175	0.04949770000530407
0	20.069470199989155	stim	58		2	unambiguous_practice	left_practice	0.0	preferred_right	84.0	79.0		25.50127219996648	0.06663650000700727
0	20.136106699996162	stim	59		2	unambiguous_practice	left_practice	0.0	preferred_right	84.0	79.0		25.567908699973486	0.0506240000249818
0	20.186730700021144	stim	60		2	unambiguous_practice	left_practice	0.0	preferred_right	84.0	79.0		25.618532699998468	0.04873330000555143
0	20.235464000026695	stim	61		2	unambiguous_practice	left_practice	0.0	preferred_right	84.0	79.0		25.66726600000402	0.05007930001011118
0	20.285543300036807	stim	62		2	unambiguous_practice	left_practice	0.0	preferred_right	84.0	79.0		25.71734530001413	0.050066899973899126
0	20.335610200010706	stim	63		2	unambiguous_practice	left_practice	0.0	preferred_right	84.0	79.0		25.76741219998803	0.05045270000118762
0	20.386062900011893	stim	64		2	unambiguous_practice	left_practice	0.0	preferred_right	84.0	79.0		25.817864899989218	0.049794399994425476
0	20.43585730000632	stim	65		2	unambiguous_practice	left_practice	0.0	preferred_right	84.0	79.0		25.867659299983643	0.05047550000017509
0	20.486332800006494	stim	66		2	unambiguous_practice	left_practice	0.0	preferred_right	84.0	79.0		25.918134799983818	0.05011660000309348
0	20.536449400009587	stim	67		2	unambiguous_practice	left_practice	0.0	preferred_right	84.0	79.0		25.96825139998691	0.050445100001525134
0	20.586894500011113	stim	68		2	unambiguous_practice	left_practice	0.0	preferred_right	84.0	79.0		26.018696499988437	0.04959339997731149
0	20.636487899988424	stim	69		2	unambiguous_practice	left_practice	0.0	preferred_right	84.0	79.0		26.068289899965748	0.05072130000917241
0	20.687209199997596	stim	70		2	unambiguous_practice	left_practice	0.0	preferred_right	84.0	79.0		26.11901119997492	0.050335500040091574
0	20.737544700037688	stim	71		2	unambiguous_practice	left_practice	0.0	preferred_right	84.0	79.0		26.169346700015012	0.05020399997010827
0	20.787748700007796	stim	72		2	unambiguous_practice	left_practice	0.0	preferred_right	84.0	79.0		26.21955069998512	0.04973500000778586
0	20.837483700015582	stim	73		2	unambiguous_practice	left_practice	0.0	preferred_right	84.0	79.0		26.269285699992906	0.05049200000939891
0	20.88797570002498	stim	74		2	unambiguous_practice	left_practice	0.0	preferred_right	84.0	79.0		26.319777700002305	0.050224100006744266
0	20.938199800031725	stim	75		2	unambiguous_practice	left_practice	0.0	preferred_right	84.0	79.0		26.37000180000905	0.04977469996083528
0	20.98797449999256	stim	76		2	unambiguous_practice	left_practice	0.0	preferred_right	84.0	79.0		26.419776499969885	0.04993770003784448
0	21.037912200030405	stim	77		2	unambiguous_practice	left_practice	0.0	preferred_right	84.0	79.0		26.46971420000773	0.0500766999903135
0	21.08798890002072	stim	78		2	unambiguous_practice	left_practice	0.0	preferred_right	84.0	79.0		26.519790899998043	0.05041329999221489
0	21.138402200012933	stim	79		2	unambiguous_practice	left_practice	0.0	preferred_right	84.0	79.0		26.570204199990258	0.050102400011383
0	21.188504600024316	stim	80		2	unambiguous_practice	left_practice	0.0	preferred_right	84.0	79.0		26.62030660000164	0.049887800007127225
0	21.238392400031444	stim	81		2	unambiguous_practice	left_practice	0.0	preferred_right	84.0	79.0		26.670194400008768	0.050182599981781095
0	21.288575000013225	stim	82		2	unambiguous_practice	left_practice	0.0	preferred_right	84.0	79.0		26.72037699999055	0.04985289997421205
0	21.338427899987437	stim	83		2	unambiguous_practice	left_practice	0.0	preferred_right	84.0	79.0		26.77022989996476	0.050416700018104166
0	21.38884460000554	stim	0		2	unambiguous_practice	left_practice	0.0	preferred_right	87.0	163.0		26.820646599982865	0.05087560001993552
0	21.439720200025477	stim	1		2	unambiguous_practice	left_practice	0.0	preferred_right	87.0	163.0		26.8715222000028	0.049889099958818406
0	21.489609299984295	stim	2		2	unambiguous_practice	left_practice	0.0	preferred_right	87.0	163.0		26.92141129996162	0.050402100023347884
0	21.540011400007643	stim	3		2	unambiguous_practice	left_practice	0.0	preferred_right	87.0	163.0		26.971813399984967	0.06628879997879267
0	21.606300199986435	stim	4		2	unambiguous_practice	left_practice	0.0	preferred_right	87.0	163.0		27.03810219996376	0.04986200004350394
0	21.65616220002994	stim	5		2	unambiguous_practice	left_practice	0.0	preferred_right	87.0	163.0		27.087964200007264	0.05040519998874515
0	21.706567400018685	stim	6		2	unambiguous_practice	left_practice	0.0	preferred_right	87.0	163.0		27.13836939999601	0.04965319996699691
0	21.75622059998568	stim	7		2	unambiguous_practice	left_practice	0.0	preferred_right	87.0	163.0		27.188022599963006	0.05033320002257824
0	21.80655380000826	stim	8		2	unambiguous_practice	left_practice	0.0	preferred_right	87.0	163.0		27.238355799985584	0.06577440002001822
0	21.872328200028278	stim	9		2	unambiguous_practice	left_practice	0.0	preferred_right	87.0	163.0		27.304130200005602	0.04999530001077801
0	21.922323500039056	stim	10		2	unambiguous_practice	left_practice	0.0	preferred_right	87.0	163.0		27.35412550001638	0.05140739999478683
0	21.973730900033843	stim	11		2	unambiguous_practice	left_practice	0.0	preferred_right	87.0	163.0		27.405532900011167	0.06581010000081733
0	22.03954100003466	stim	12		2	unambiguous_practice	left_practice	0.0	preferred_right	87.0	163.0		27.471343000011984	0.05019129998981953
0	22.08973230002448	stim	13		2	unambiguous_practice	left_practice	0.0	preferred_right	87.0	163.0		27.521534300001804	0.03411359997699037
0	22.12384590000147	stim	14		2	unambiguous_practice	left_practice	0.0	preferred_right	87.0	163.0		27.555647899978794	0.032961899996735156
0	22.156807799998205	stim	15		2	unambiguous_practice	left_practice	0.0	preferred_right	87.0	163.0		27.58860979997553	0.033288100035861135
0	22.190095900034066	stim	16		2	unambiguous_practice	left_practice	0.0	preferred_right	87.0	163.0		27.62189790001139	0.03321139997569844
0	22.223307300009765	stim	17		2	unambiguous_practice	left_practice	0.0	preferred_right	87.0	163.0		27.65510929998709	0.0333717999747023
0	22.256679099984467	stim	18		2	unambiguous_practice	left_practice	0.0	preferred_right	87.0	163.0		27.68848109996179	0.033248100022319704
0	22.289927200006787	stim	19		2	unambiguous_practice	left_practice	0.0	preferred_right	87.0	163.0		27.72172919998411	0.03335510002216324
0	22.32328230002895	stim	20		2	unambiguous_practice	left_practice	0.0	preferred_right	87.0	163.0		27.755084300006274	0.03360229998361319
0	22.356884600012563	stim	21		2	unambiguous_practice	left_practice	0.0	preferred_right	87.0	163.0		27.788686599989887	0.03328279999550432
0	22.390167400008067	stim	22		2	unambiguous_practice	left_practice	0.0	preferred_right	87.0	163.0		27.82196939998539	0.03366200003074482
0	22.423829400038812	stim	23		2	unambiguous_practice	left_practice	0.0	preferred_right	87.0	163.0		27.855631400016136	0.03338759997859597
0	22.45721700001741	stim	24		2	unambiguous_practice	left_practice	0.0	preferred_right	87.0	163.0		27.889018999994732	0.033267199993133545
0	22.490484200010542	stim	25		2	unambiguous_practice	left_practice	0.0	preferred_right	87.0	163.0		27.922286199987866	0.03333599999314174
0	22.523820200003684	stim	26		2	unambiguous_practice	left_practice	0.0	preferred_right	87.0	163.0		27.955622199981008	0.033536900009494275
0	22.557357100013178	stim	27		2	unambiguous_practice	left_practice	0.0	preferred_right	87.0	163.0		27.989159099990502	0.03305730002466589
0	22.590414400037844	stim	28		2	unambiguous_practice	left_practice	0.0	preferred_right	87.0	163.0		28.022216400015168	0.03343529999256134
0	22.623849700030405	stim	29		2	unambiguous_practice	left_practice	0.0	preferred_right	87.0	163.0		28.05565170000773	0.03348459996050224
0	22.657334299990907	stim	30		2	unambiguous_practice	left_practice	0.0	preferred_right	87.0	163.0		28.08913629996823	0.03328100004000589
0	22.690615300030913	stim	31		2	unambiguous_practice	left_practice	0.0	preferred_right	87.0	163.0		28.122417300008237	0.03345190000254661
0	22.72406720003346	stim	32		2	unambiguous_practice	left_practice	0.0	preferred_right	87.0	163.0		28.155869200010784	0.033231399953365326
0	22.757298599986825	stim	33		2	unambiguous_practice	left_practice	0.0	preferred_right	87.0	163.0		28.18910059996415	0.03325800003949553
0	22.79055660002632	stim	34		2	unambiguous_practice	left_practice	0.0	preferred_right	87.0	163.0		28.222358600003645	0.033228699991013855
0	22.823785300017335	stim	35		2	unambiguous_practice	left_practice	0.0	preferred_right	87.0	163.0		28.25558729999466	0.033561899967025965
0	22.85734719998436	stim	36		2	unambiguous_practice	left_practice	0.0	preferred_right	87.0	163.0		28.289149199961685	0.033357700041960925
0	22.89070490002632	stim	37		2	unambiguous_practice	left_practice	0.0	preferred_right	87.0	163.0		28.322506900003646	0.033332299964968115
0	22.92403719999129	stim	38		2	unambiguous_practice	left_practice	0.0	preferred_right	87.0	163.0		28.355839199968614	0.03349120001075789
0	22.957528400002047	stim	39		2	unambiguous_practice	left_practice	0.0	preferred_right	87.0	163.0		28.38933039997937	0.03326990001369268
0	22.99079830001574	stim	40		2	unambiguous_practice	left_practice	0.0	preferred_right	87.0	163.0		28.422600299993064	0.03348390001337975
0	23.02428220002912	stim	41		2	unambiguous_practice	left_practice	0.0	preferred_right	87.0	163.0		28.456084200006444	0.03309029998490587
0	23.057372500014026	stim	42		2	unambiguous_practice	left_practice	0.0	preferred_right	87.0	163.0		28.48917449999135	0.033325000025797635
0	23.090697500039823	stim	43		2	unambiguous_practice	left_practice	0.0	preferred_right	87.0	163.0		28.522499500017148	0.03332399995997548
0	23.1240214999998	stim	44		2	unambiguous_practice	left_practice	0.0	preferred_right	87.0	163.0		28.555823499977123	0.03350240003783256
0	23.15752390003763	stim	45		2	unambiguous_practice	left_practice	0.0	preferred_right	87.0	163.0		28.589325900014956	0.03378319996409118
0	23.191307100001723	stim	46		2	unambiguous_practice	left_practice	0.0	preferred_right	87.0	163.0		28.623109099979047	0.03302450000774115
0	23.224331600009464	stim	47		2	unambiguous_practice	left_practice	0.0	preferred_right	87.0	163.0		28.656133599986788	0.03330539999296889
0	23.257637000002433	stim	48		2	unambiguous_practice	left_practice	0.0	preferred_right	87.0	163.0		28.689438999979757	0.033310100028757006
0	23.29094710003119	stim	49		2	unambiguous_practice	left_practice	0.0	preferred_right	87.0	163.0		28.722749100008514	0.03332449996378273
0	23.324271599994972	stim	50		2	unambiguous_practice	left_practice	0.0	preferred_right	87.0	163.0		28.756073599972297	0.03354770003352314
0	23.357819300028495	stim	51		2	unambiguous_practice	left_practice	0.0	preferred_right	87.0	163.0		28.78962130000582	0.03358230000594631
0	23.391401600034442	stim	52		2	unambiguous_practice	left_practice	0.0	preferred_right	87.0	163.0		28.823203600011766	0.03353039996000007
0	23.424931999994442	stim	53		2	unambiguous_practice	left_practice	0.0	preferred_right	87.0	163.0		28.856733999971766	0.03387129999464378
0	23.458803299989086	stim	54		2	unambiguous_practice	left_practice	0.0	preferred_right	87.0	163.0		28.89060529996641	0.03373310004826635
0	23.492536400037352	stim	55		2	unambiguous_practice	left_practice	0.0	preferred_right	87.0	163.0		28.924338400014676	0.03351649997057393
0	23.526052900007926	stim	56		2	unambiguous_practice	left_practice	0.0	preferred_right	87.0	163.0		28.95785489998525	0.03333569999085739
0	23.559388599998783	stim	57		2	unambiguous_practice	left_practice	0.0	preferred_right	87.0	163.0		28.991190599976107	0.03319360001478344
0	23.592582200013567	stim	58		2	unambiguous_practice	left_practice	0.0	preferred_right	87.0	163.0		29.02438419999089	0.034027100016828626
0	23.626609300030395	stim	59		2	unambiguous_practice	left_practice	0.0	preferred_right	87.0	163.0		29.05841130000772	0.033308499958366156
0	23.65991779998876	stim	60		2	unambiguous_practice	left_practice	0.0	preferred_right	87.0	163.0		29.091719799966086	0.033812600013334304
0	23.693730400002096	stim	61		2	unambiguous_practice	left_practice	0.0	preferred_right	87.0	163.0		29.12553239997942	0.03333790000760928
0	23.727068300009705	stim	62		2	unambiguous_practice	left_practice	0.0	preferred_right	87.0	163.0		29.15887029998703	0.03344410000136122
0	23.760512400011066	stim	63		2	unambiguous_practice	left_practice	0.0	preferred_right	87.0	163.0		29.19231439998839	0.033421400003135204
0	23.7939338000142	stim	64		2	unambiguous_practice	left_practice	0.0	preferred_right	87.0	163.0		29.225735799991526	0.032954800000879914
0	23.82688860001508	stim	65		2	unambiguous_practice	left_practice	0.0	preferred_right	87.0	163.0		29.258690599992406	0.0337569999974221
0	23.860645600012504	stim	66		2	unambiguous_practice	left_practice	0.0	preferred_right	87.0	163.0		29.292447599989828	0.033248100022319704
0	23.893893700034823	stim	67		2	unambiguous_practice	left_practice	0.0	preferred_right	87.0	163.0		29.325695700012147	0.033576599962543696
0	23.927470299997367	stim	68		2	unambiguous_practice	left_practice	0.0	preferred_right	87.0	163.0		29.35927229997469	0.033268700004555285
0	23.960739000001922	stim	69		2	unambiguous_practice	left_practice	0.0	preferred_right	87.0	163.0		29.392540999979246	0.03330090001691133
0	23.994039900018834	stim	70		2	unambiguous_practice	left_practice	0.0	preferred_right	87.0	163.0		29.425841899996158	0.03337269998155534
0	24.02741260000039	stim	71		2	unambiguous_practice	left_practice	0.0	preferred_right	87.0	163.0		29.459214599977713	0.03332620003493503
0	24.060738800035324	stim	72		2	unambiguous_practice	left_practice	0.0	preferred_right	87.0	163.0		29.492540800012648	0.0331986999954097
0	24.093937500030734	stim	73		2	unambiguous_practice	left_practice	0.0	preferred_right	87.0	163.0		29.525739500008058	0.03350510000018403
0	24.127442600030918	stim	74		2	unambiguous_practice	left_practice	0.0	preferred_right	87.0	163.0		29.559244600008242	0.03329920000396669
0	24.160741800034884	stim	75		2	unambiguous_practice	left_practice	0.0	preferred_right	87.0	163.0		29.59254380001221	0.03345419996185228
0	24.194195999996737	stim	76		2	unambiguous_practice	left_practice	0.0	preferred_right	87.0	163.0		29.62599799997406	0.03327640000497922
0	24.227472400001716	stim	77		2	unambiguous_practice	left_practice	0.0	preferred_right	87.0	163.0		29.65927439997904	0.033379800035618246
0	24.260852200037334	stim	78		2	unambiguous_practice	left_practice	0.0	preferred_right	87.0	163.0		29.69265420001466	0.03328269999474287
0	24.294134900032077	stim	79		2	unambiguous_practice	left_practice	0.0	preferred_right	87.0	163.0		29.7259369000094	0.033179599966388196
0	24.327314499998465	stim	80		2	unambiguous_practice	left_practice	0.0	preferred_right	87.0	163.0		29.75911649997579	0.03371400001924485
0	24.36102850001771	stim	81		2	unambiguous_practice	left_practice	0.0	preferred_right	87.0	163.0		29.792830499995034	0.03339579998282716
0	24.394424300000537	stim	82		2	unambiguous_practice	left_practice	0.0	preferred_right	87.0	163.0		29.82622629997786	0.033296999987214804
0	24.427721299987752	stim	83		2	unambiguous_practice	left_practice	0.0	preferred_right	87.0	163.0		29.859523299965076	0.033394900034181774
0	24.461116200021934	stim	84		2	unambiguous_practice	left_practice	0.0	preferred_right	87.0	163.0		29.892918199999258	0.03607460000785068
0	24.497190800029784	stim	85		2	unambiguous_practice	left_practice	0.0	preferred_right	87.0	163.0		29.92899280000711	0.048945299990009516
0	24.546136100019794	stim	86		2	unambiguous_practice	left_practice	0.0	preferred_right	87.0	163.0		29.977938099997118	0.050006299978122115
0	24.596142399997916	stim	0		2	unambiguous_practice	left_practice	0.0	preferred_right	49.0	60.0		30.02794439997524	0.05050910002319142
0	24.646651500021107	stim	1		2	unambiguous_practice	left_practice	0.0	preferred_right	49.0	60.0		30.07845349999843	0.05059880000771955
0	24.697250300028827	stim	2		2	unambiguous_practice	left_practice	0.0	preferred_right	49.0	60.0		30.12905230000615	0.04907389997970313
0	24.74632420000853	stim	3		2	unambiguous_practice	left_practice	0.0	preferred_right	49.0	60.0		30.178126199985854	0.05049039999721572
0	24.796814600005746	stim	4		2	unambiguous_practice	left_practice	0.0	preferred_right	49.0	60.0		30.22861659998307	0.04950590000953525
0	24.84632050001528	stim	5		2	unambiguous_practice	left_practice	0.0	preferred_right	49.0	60.0		30.278122499992605	0.05080580001231283
0	24.897126300027594	stim	6		2	unambiguous_practice	left_practice	0.0	preferred_right	49.0	60.0		30.328928300004918	0.048791299981530756
0	24.945917600009125	stim	7		2	unambiguous_practice	left_practice	0.0	preferred_right	49.0	60.0		30.37771959998645	0.05038630001945421
0	24.99630390002858	stim	8		2	unambiguous_practice	left_practice	0.0	preferred_right	49.0	60.0		30.428105900005903	0.04965110000921413
0	25.045955000037793	stim	9		2	unambiguous_practice	left_practice	0.0	preferred_right	49.0	60.0		30.477757000015117	0.03336959995795041
0	25.079324599995743	stim	10		2	unambiguous_practice	left_practice	0.0	preferred_right	49.0	60.0		30.511126599973068	0.03380159998778254
0	25.113126199983526	stim	11		2	unambiguous_practice	left_practice	0.0	preferred_right	49.0	60.0		30.54492819996085	0.03667900001164526
0	25.14980519999517	stim	12		2	unambiguous_practice	left_practice	0.0	preferred_right	49.0	60.0		30.581607199972495	0.03307880001375452
0	25.182884000008926	stim	13		2	unambiguous_practice	left_practice	0.0	preferred_right	49.0	60.0		30.61468599998625	0.033639100030995905
0	25.21652310003992	stim	14		2	unambiguous_practice	left_practice	0.0	preferred_right	49.0	60.0		30.648325100017246	0.033261099946685135
0	25.249784199986607	stim	15		2	unambiguous_practice	left_practice	0.0	preferred_right	49.0	60.0		30.68158619996393	0.033151600044220686
0	25.282935800030828	stim	16		2	unambiguous_practice	left_practice	0.0	preferred_right	49.0	60.0		30.71473780000815	0.03319329995429143
0	25.31612909998512	stim	17		2	unambiguous_practice	left_practice	0.0	preferred_right	49.0	60.0		30.747931099962443	0.03290900000138208
0	25.3490380999865	stim	18		2	unambiguous_practice	left_practice	0.0	preferred_right	49.0	60.0		30.780840099963825	0.03360720002092421
0	25.382645300007425	stim	19		2	unambiguous_practice	left_practice	0.0	preferred_right	49.0	60.0		30.81444729998475	0.03366970003116876
0	25.416315000038594	stim	20		2	unambiguous_practice	left_practice	0.0	preferred_right	49.0	60.0		30.848117000015918	0.03322449995903298
0	25.449539499997627	stim	21		2	unambiguous_practice	left_practice	0.0	preferred_right	49.0	60.0		30.88134149997495	0.03356589999748394
0	25.48310539999511	stim	22		2	unambiguous_practice	left_practice	0.0	preferred_right	49.0	60.0		30.914907399972435	0.03310040000360459
0	25.516205799998716	stim	23		2	unambiguous_practice	left_practice	0.0	preferred_right	49.0	60.0		30.94800779997604	0.03346790000796318
0	25.54967370000668	stim	24		2	unambiguous_practice	left_practice	0.0	preferred_right	49.0	60.0		30.981475699984003	0.032917400007136166
0	25.582591100013815	stim	25		2	unambiguous_practice	left_practice	0.0	preferred_right	49.0	60.0		31.01439309999114	0.03303930000402033
0	25.615630400017835	stim	26		2	unambiguous_practice	left_practice	0.0	preferred_right	49.0	60.0		31.04743239999516	0.0340915999840945
0	25.64972200000193	stim	27		2	unambiguous_practice	left_practice	0.0	preferred_right	49.0	60.0		31.081523999979254	0.04763310000998899
0	25.69735510001192	stim	28		2	unambiguous_practice	left_practice	0.0	preferred_right	49.0	60.0		31.129157099989243	0.052880599978379905
0	25.7502356999903	stim	29		2	unambiguous_practice	left_practice	0.0	preferred_right	49.0	60.0		31.182037699967623	0.05006090004462749
0	25.800296600034926	stim	30		2	unambiguous_practice	left_practice	0.0	preferred_right	49.0	60.0		31.23209860001225	0.04768869996769354
0	25.84798530000262	stim	31		2	unambiguous_practice	left_practice	0.0	preferred_right	49.0	60.0		31.279787299979944	0.05303850001655519
0	25.901023800019175	stim	32		2	unambiguous_practice	left_practice	0.0	preferred_right	49.0	60.0		31.3328257999965	0.0658069999772124
0	25.966830799996387	stim	33		2	unambiguous_practice	left_practice	0.0	preferred_right	49.0	60.0		31.39863279997371	0.05138459999579936
0	26.018215399992187	stim	34		2	unambiguous_practice	left_practice	0.0	preferred_right	49.0	60.0		31.45001739996951	0.04991699999663979
0	26.068132399988826	stim	35		2	unambiguous_practice	left_practice	0.0	preferred_right	49.0	60.0		31.49993439996615	0.05028580001089722
0	26.118418199999724	stim	36		2	unambiguous_practice	left_practice	0.0	preferred_right	49.0	60.0		31.550220199977048	0.04945200000656769
0	26.16787020000629	stim	37		2	unambiguous_practice	left_practice	0.0	preferred_right	49.0	60.0		31.599672199983615	0.05003270000452176
0	26.217902900010813	stim	38		2	unambiguous_practice	left_practice	0.0	preferred_right	49.0	60.0		31.649704899988137	0.05023079999955371
0	26.268133700010367	stim	39		2	unambiguous_practice	left_practice	0.0	preferred_right	49.0	60.0		31.69993569998769	0.05072609998751432
0	26.31885979999788	stim	40		2	unambiguous_practice	left_practice	0.0	preferred_right	49.0	60.0		31.750661799975205	0.048884599993471056
0	26.367744399991352	stim	41		2	unambiguous_practice	left_practice	0.0	preferred_right	49.0	60.0		31.799546399968676	0.05155700002796948
0	26.41930140001932	stim	42		2	unambiguous_practice	left_practice	0.0	preferred_right	49.0	60.0		31.851103399996646	0.047290500020608306
0	26.46659190003993	stim	43		2	unambiguous_practice	left_practice	0.0	preferred_right	49.0	60.0		31.898393900017254	0.033642099995631725
0	26.50023400003556	stim	44		2	unambiguous_practice	left_practice	0.0	preferred_right	49.0	60.0		31.932036000012886	0.03338779998011887
0	26.53362180001568	stim	45		2	unambiguous_practice	left_practice	0.0	preferred_right	49.0	60.0		31.965423799993005	0.034102700010407716
0	26.567724500026088	stim	46		2	unambiguous_practice	left_practice	0.0	preferred_right	49.0	60.0		31.999526500003412	0.03218009998090565
0	26.599904600006994	stim	47		2	unambiguous_practice	left_practice	0.0	preferred_right	49.0	60.0		32.03170659998432	0.03396780003095046
0	26.633872400037944	stim	48		2	unambiguous_practice	left_practice	0.0	preferred_right	49.0	60.0		32.06567440001527	8.433336999965832
0	35.067209400003776	stim	0		0	break	break	0.0	preferred_right	1.0	0.0		40.4990113999811	-35.067787200037856
0	-0.0005778000340797007	break	0	space	300	break	break	0.0	preferred_right	1.0	0.0	0.06337560003157705	5.4312241999432445	40.098200100066606
1	40.097622300032526	stim	0		2	unambiguous	right	1.0	preferred_right	79.0	0.0		45.52942430000985	0.05308310000691563
1	40.15070540003944	stim	1		2	unambiguous	right	1.0	preferred_right	79.0	0.0		45.582507400016766	0.04988399997819215
1	40.200589400017634	stim	2		2	unambiguous	right	1.0	preferred_right	79.0	0.0		45.63239139999496	0.050038899993523955
1	40.25062830001116	stim	3		2	unambiguous	right	1.0	preferred_right	79.0	0.0		45.68243029998848	0.050366499985102564
1	40.30099479999626	stim	4		2	unambiguous	right	1.0	preferred_right	79.0	0.0		45.732796799973585	0.049853900040034205
1	40.350848700036295	stim	5		2	unambiguous	right	1.0	preferred_right	79.0	0.0		45.78265070001362	0.04989249998470768
1	40.400741200021	stim	6		2	unambiguous	right	1.0	preferred_right	79.0	0.0		45.83254319999833	0.04999079997651279
1	40.450731999997515	stim	7		2	unambiguous	right	1.0	preferred_right	79.0	0.0		45.88253399997484	0.05034740001428872
1	40.501079400011804	stim	8		2	unambiguous	right	1.0	preferred_right	79.0	0.0		45.93288139998913	0.049130800005514175
1	40.55021020001732	stim	9		2	unambiguous	right	1.0	preferred_right	79.0	0.0		45.98201219999464	0.04854180000256747
1	40.598752000019886	stim	10		2	unambiguous	right	1.0	preferred_right	79.0	0.0		46.03055399999721	0.033667400013655424
1	40.63241940003354	stim	11		2	unambiguous	right	1.0	preferred_right	79.0	0.0		46.064221400010865	0.034082099969964474
1	40.666501500003505	stim	12		2	unambiguous	right	1.0	preferred_right	79.0	0.0		46.09830349998083	0.05078920000232756
1	40.71729070000583	stim	13		2	unambiguous	right	1.0	preferred_right	79.0	0.0		46.14909269998316	0.05039960000431165
1	40.767690300010145	stim	14		2	unambiguous	right	1.0	preferred_right	79.0	0.0		46.19949229998747	0.04955769999651238
1	40.81724800000666	stim	15		2	unambiguous	right	1.0	preferred_right	79.0	0.0		46.24904999998398	0.049430200015194714
1	40.86667820002185	stim	16		2	unambiguous	right	1.0	preferred_right	79.0	0.0		46.298480199999176	0.05090480000944808
1	40.9175830000313	stim	17		2	unambiguous	right	1.0	preferred_right	79.0	0.0		46.349385000008624	0.05013019999023527
1	40.967713200021535	stim	18		2	unambiguous	right	1.0	preferred_right	79.0	0.0		46.39951519999886	0.049566300003789365
1	41.017279500025325	stim	19		2	unambiguous	right	1.0	preferred_right	79.0	0.0		46.44908150000265	0.050310099963098764
1	41.06758959998842	stim	20		2	unambiguous	right	1.0	preferred_right	79.0	0.0		46.49939159996575	0.04986080003436655
1	41.11745040002279	stim	21		2	unambiguous	right	1.0	preferred_right	79.0	0.0		46.549252400000114	0.04990599997108802
1	41.16735639999388	stim	22		2	unambiguous	right	1.0	preferred_right	79.0	0.0		46.5991583999712	0.05019100004574284
1	41.21754740003962	stim	23		2	unambiguous	right	1.0	preferred_right	79.0	0.0		46.649349400016945	0.050747299974318594
1	41.26829470001394	stim	24		2	unambiguous	right	1.0	preferred_right	79.0	0.0		46.70009669999126	0.04903200000990182
1	41.31732670002384	stim	25		2	unambiguous	right	1.0	preferred_right	79.0	0.0		46.749128700001165	0.05001559999072924
1	41.36734230001457	stim	26		2	unambiguous	right	1.0	preferred_right	79.0	0.0		46.799144299991895	0.05004409997491166
1	41.41738639998948	stim	27		2	unambiguous	right	1.0	preferred_right	79.0	0.0		46.849188399966806	0.04995210003107786
1	41.46733850002056	stim	28		2	unambiguous	right	1.0	preferred_right	79.0	0.0		46.899140499997884	0.050188499968498945
1	41.51752699998906	stim	29		2	unambiguous	right	1.0	preferred_right	79.0	0.0		46.94932899996638	0.04993480001576245
1	41.56746180000482	stim	30		2	unambiguous	right	1.0	preferred_right	79.0	0.0		46.999263799982145	0.05036659998586401
1	41.617828399990685	stim	31		2	unambiguous	right	1.0	preferred_right	79.0	0.0		47.04963039996801	0.05029169999761507
1	41.6681200999883	stim	32		2	unambiguous	right	1.0	preferred_right	79.0	0.0		47.099922099965625	0.049985599995125085
1	41.718105699983425	stim	33		2	unambiguous	right	1.0	preferred_right	79.0	0.0		47.14990769996075	0.0502884000306949
1	41.76839410001412	stim	34		2	unambiguous	right	1.0	preferred_right	79.0	0.0		47.200196099991444	0.04972700000507757
1	41.8181211000192	stim	35		2	unambiguous	right	1.0	preferred_right	79.0	0.0		47.24992309999652	0.05024900002172217
1	41.86837010004092	stim	36		2	unambiguous	right	1.0	preferred_right	79.0	0.0		47.300172100018244	0.05033329996513203
1	41.91870340000605	stim	37		2	unambiguous	right	1.0	preferred_right	79.0	0.0		47.350505399983376	0.05005620000883937
1	41.96875960001489	stim	38		2	unambiguous	right	1.0	preferred_right	79.0	0.0		47.400561599992216	0.050108399998862296
1	42.018868000013754	stim	39		2	unambiguous	right	1.0	preferred_right	79.0	0.0		47.45066999999108	0.04949699999997392
1	42.06836500001373	stim	40		2	unambiguous	right	1.0	preferred_right	79.0	0.0		47.50016699999105	0.05046499997843057
1	42.11882999999216	stim	41		2	unambiguous	right	1.0	preferred_right	79.0	0.0		47.55063199996948	0.033991600037552416
1	42.15282160002971	stim	42		2	unambiguous	right	1.0	preferred_right	79.0	0.0		47.584623600007035	0.05023409996647388
1	42.203055699996185	stim	43		2	unambiguous	right	1.0	preferred_right	79.0	0.0		47.63485769997351	0.05021950002992526
1	42.25327520002611	stim	44		2	unambiguous	right	1.0	preferred_right	79.0	0.0		47.685077200003434	0.03328269999474287
1	42.28655790002085	stim	45		2	unambiguous	right	1.0	preferred_right	79.0	0.0		47.71835989999818	0.03329429996665567
1	42.31985219998751	stim	46		2	unambiguous	right	1.0	preferred_right	79.0	0.0		47.75165419996483	0.049970699998084456
1	42.36982289998559	stim	47		2	unambiguous	right	1.0	preferred_right	79.0	0.0		47.80162489996292	0.050054100051056594
1	42.41987700003665	stim	48		2	unambiguous	right	1.0	preferred_right	79.0	0.0		47.851679000013974	0.033358899992890656
1	42.45323590002954	stim	49		2	unambiguous	right	1.0	preferred_right	79.0	0.0		47.885037900006864	0.03333639999618754
1	42.48657230002573	stim	50		2	unambiguous	right	1.0	preferred_right	79.0	0.0		47.91837430000305	0.03364259999943897
1	42.52021490002517	stim	51		2	unambiguous	right	1.0	preferred_right	79.0	0.0		47.95201690000249	0.03416719997767359
1	42.55438210000284	stim	52		2	unambiguous	right	1.0	preferred_right	79.0	0.0		47.986184099980164	0.04952420003246516
1	42.603906300035305	stim	53		2	unambiguous	right	1.0	preferred_right	79.0	0.0		48.03570830001263	0.049951399967540056
1	42.653857700002845	stim	54		2	unambiguous	right	1.0	preferred_right	79.0	0.0		48.08565969998017	0.03365019999910146
1	42.68750790000195	stim	55		2	unambiguous	right	1.0	preferred_right	79.0	0.0		48.11930989997927	0.050419699982739985
1	42.73792759998469	stim	56		2	unambiguous	right	1.0	preferred_right	79.0	0.0		48.16972959996201	0.049819900013972074
1	42.78774749999866	stim	57		2	unambiguous	right	1.0	preferred_right	79.0	0.0		48.21954949997598	0.05014150001807138
1	42.83788900001673	stim	58		2	unambiguous	right	1.0	preferred_right	79.0	0.0		48.269690999994054	0.04989129997557029
1	42.8877802999923	stim	59		2	unambiguous	right	1.0	preferred_right	79.0	0.0		48.319582299969625	0.051241900015156716
1	42.93902220000746	stim	60		2	unambiguous	right	1.0	preferred_right	79.0	0.0		48.37082419998478	0.04953469999600202
1	42.98855690000346	stim	61		2	unambiguous	right	1.0	preferred_right	79.0	0.0		48.42035889998078	0.050108399998862296
1	43.03866530000232	stim	62		2	unambiguous	right	1.0	preferred_right	79.0	0.0		48.470467299979646	0.049458199995569885
1	43.08812349999789	stim	63		2	unambiguous	right	1.0	preferred_right	79.0	0.0		48.519925499975216	0.033397699997294694
1	43.121521199995186	stim	64		2	unambiguous	right	1.0	preferred_right	79.0	0.0		48.55332319997251	0.033261200005654246
1	43.15478240000084	stim	65		2	unambiguous	right	1.0	preferred_right	79.0	0.0		48.586584399978165	0.033428499998990446
1	43.18821089999983	stim	66		2	unambiguous	right	1.0	preferred_right	79.0	0.0		48.620012899977155	0.033516100025735795
1	43.22172700002557	stim	67		2	unambiguous	right	1.0	preferred_right	79.0	0.0		48.65352900000289	0.033265599980950356
1	43.25499260000652	stim	68		2	unambiguous	right	1.0	preferred_right	79.0	0.0		48.68679459998384	0.033307400008197874
1	43.288300000014715	stim	69		2	unambiguous	right	1.0	preferred_right	79.0	0.0		48.72010199999204	0.03314650000538677
1	43.3214465000201	stim	70		2	unambiguous	right	1.0	preferred_right	79.0	0.0		48.753248499997426	0.03290749998996034
1	43.35435400001006	stim	71		2	unambiguous	right	1.0	preferred_right	79.0	0.0		48.786155999987386	0.03386760002467781
1	43.38822160003474	stim	72		2	unambiguous	right	1.0	preferred_right	79.0	0.0		48.820023600012064	0.03360899997642264
1	43.42183060001116	stim	73		2	unambiguous	right	1.0	preferred_right	79.0	0.0		48.85363259998849	0.033215200004633516
1	43.455045800015796	stim	74		2	unambiguous	right	1.0	preferred_right	79.0	0.0		48.88684779999312	0.033653699967544526
1	43.48869949998334	stim	75		2	unambiguous	right	1.0	preferred_right	79.0	0.0		48.920501499960665	0.033326600037980825
1	43.52202610002132	stim	76		2	unambiguous	right	1.0	preferred_right	79.0	0.0		48.953828099998645	0.03341209999052808
1	43.55543820001185	stim	77		2	unambiguous	right	1.0	preferred_right	79.0	0.0		48.987240199989174	0.03351039998233318
1	43.58894859999418	stim	78		2	unambiguous	right	1.0	preferred_right	79.0	0.0		49.02075059997151	0.032802100002299994
2	43.62175069999648	stim	0		2	unambiguous	left	1.0	preferred_right	102.0	79.0		49.05355269997381	0.03378639998845756
2	43.65553709998494	stim	1		2	unambiguous	left	1.0	preferred_right	102.0	79.0		49.087339099962264	0.03313300001900643
2	43.68867010000395	stim	2		2	unambiguous	left	1.0	preferred_right	102.0	79.0		49.12047209998127	0.03344010002911091
2	43.72211020003306	stim	3		2	unambiguous	left	1.0	preferred_right	102.0	79.0		49.15391220001038	0.03337419999297708
2	43.755484400026035	stim	4		2	unambiguous	left	1.0	preferred_right	102.0	79.0		49.18728640000336	0.033366599993314594
2	43.78885100001935	stim	5		2	unambiguous	left	1.0	preferred_right	102.0	79.0		49.22065299999667	0.03333880001446232
2	43.82218980003381	stim	6		2	unambiguous	left	1.0	preferred_right	102.0	79.0		49.253991800011136	0.03311029996257275
2	43.855300099996384	stim	7		2	unambiguous	left	1.0	preferred_right	102.0	79.0		49.28710209997371	0.03362520004156977
2	43.888925300037954	stim	8		2	unambiguous	left	1.0	preferred_right	102.0	79.0		49.32072730001528	0.03328380000311881
2	43.92220910004107	stim	9		2	unambiguous	left	1.0	preferred_right	102.0	79.0		49.3540111000184	0.03357009997125715
2	43.95577920001233	stim	10		2	unambiguous	left	1.0	preferred_right	102.0	79.0		49.387581199989654	0.0334222000092268
2	43.98920140002156	stim	11		2	unambiguous	left	1.0	preferred_right	102.0	79.0		49.42100339999888	0.03337740001734346
2	44.0225788000389	stim	12		2	unambiguous	left	1.0	preferred_right	102.0	79.0		49.454380800016224	0.03336889995262027
2	44.05594769999152	stim	13		2	unambiguous	left	1.0	preferred_right	102.0	79.0		49.487749699968845	0.033113200042862445
2	44.08906090003438	stim	14		2	unambiguous	left	1.0	preferred_right	102.0	79.0		49.52086290001171	0.03389049996621907
2	44.1229514000006	stim	15		2	unambiguous	left	1.0	preferred_right	102.0	79.0		49.554753399977926	0.033175499993376434
2	44.15612689999398	stim	16		2	unambiguous	left	1.0	preferred_right	102.0	79.0		49.5879288999713	0.033369400014635175
2	44.189496300008614	stim	17		2	unambiguous	left	1.0	preferred_right	102.0	79.0		49.62129829998594	0.03330680000362918
2	44.22280310001224	stim	18		2	unambiguous	left	1.0	preferred_right	102.0	79.0		49.65460509998957	0.03338099998654798
2	44.25618409999879	stim	19		2	unambiguous	left	1.0	preferred_right	102.0	79.0		49.687986099976115	0.0333789000287652
2	44.289563000027556	stim	20		2	unambiguous	left	1.0	preferred_right	102.0	79.0		49.72136500000488	0.033470199967268854
2	44.323033199994825	stim	21		2	unambiguous	left	1.0	preferred_right	102.0	79.0		49.75483519997215	0.0332230000058189
2	44.356256200000644	stim	22		2	unambiguous	left	1.0	preferred_right	102.0	79.0		49.78805819997797	0.033529500011354685
2	44.389785700012	stim	23		2	unambiguous	left	1.0	preferred_right	102.0	79.0		49.82158769998932	0.033258299983572215
2	44.42304399999557	stim	24		2	unambiguous	left	1.0	preferred_right	102.0	79.0		49.854845999972895	0.03330250002909452
2	44.456346500024665	stim	25		2	unambiguous	left	1.0	preferred_right	102.0	79.0		49.88814850000199	0.033524899976328015
2	44.48987140000099	stim	26		2	unambiguous	left	1.0	preferred_right	102.0	79.0		49.92167339997832	0.033370800025295466
2	44.52324220002629	stim	27		2	unambiguous	left	1.0	preferred_right	102.0	79.0		49.95504420000361	0.03340299997944385
2	44.55664520000573	stim	28		2	unambiguous	left	1.0	preferred_right	102.0	79.0		49.98844719998306	0.0334339999826625
2	44.590079199988395	stim	29		2	unambiguous	left	1.0	preferred_right	102.0	79.0		50.02188119996572	0.033031600003596395
2	44.62311079999199	stim	30		2	unambiguous	left	1.0	preferred_right	102.0	79.0		50.054912799969316	0.033679200045298785
2	44.65679000003729	stim	31		2	unambiguous	left	1.0	preferred_right	102.0	79.0		50.088592000014614	0.033412399992812425
2	44.6902024000301	stim	32		2	unambiguous	left	1.0	preferred_right	102.0	79.0		50.12200440000743	0.033962199988309294
2	44.72416460001841	stim	33		2	unambiguous	left	1.0	preferred_right	102.0	79.0		50.155966599995736	0.03302819997770712
2	44.75719279999612	stim	34		2	unambiguous	left	1.0	preferred_right	102.0	79.0		50.18899479997344	0.03347339999163523
2	44.790666199987754	stim	35		2	unambiguous	left	1.0	preferred_right	102.0	79.0		50.22246819996508	0.03360540000721812
2	44.82427159999497	stim	36		2	unambiguous	left	1.0	preferred_right	102.0	79.0		50.2560735999723	0.03308409999590367
2	44.857355699990876	stim	37		2	unambiguous	left	1.0	preferred_right	102.0	79.0		50.2891576999682	0.033148500020615757
2	44.89050420001149	stim	38		2	unambiguous	left	1.0	preferred_right	102.0	79.0		50.322306199988816	0.033868599974084646
2	44.924372799985576	stim	39		2	unambiguous	left	1.0	preferred_right	102.0	79.0		50.3561747999629	0.033083500049542636
2	44.95745630003512	stim	40		2	unambiguous	left	1.0	preferred_right	102.0	79.0		50.38925830001244	0.03322929999558255
2	44.9906856000307	stim	41		2	unambiguous	left	1.0	preferred_right	102.0	79.0		50.422487600008026	0.03412169998046011
2	45.02480730001116	stim	42		2	unambiguous	left	1.0	preferred_right	102.0	79.0		50.456609299988486	0.0333231000113301
2	45.05813040002249	stim	43		2	unambiguous	left	1.0	preferred_right	102.0	79.0		50.489932399999816	0.03337560000363737
2	45.09150600002613	stim	44		2	unambiguous	left	1.0	preferred_right	102.0	79.0		50.52330800000345	0.03289949998725206
2	45.12440550001338	stim	45		2	unambiguous	left	1.0	preferred_right	102.0	79.0		50.556207499990705	0.033938299980945885
2	45.15834379999433	stim	46		2	unambiguous	left	1.0	preferred_right	102.0	79.0		50.59014579997165	0.03322209999896586
2	45.19156589999329	stim	47		2	unambiguous	left	1.0	preferred_right	102.0	79.0		50.62336789997062	0.033438900019973516
2	45.22500480001327	stim	48		2	unambiguous	left	1.0	preferred_right	102.0	79.0		50.65680679999059	0.033876299974508584
2	45.258881099987775	stim	49		2	unambiguous	left	1.0	preferred_right	102.0	79.0		50.6906830999651	0.03404030000092462
2	45.2929213999887	stim	50		2	unambiguous	left	1.0	preferred_right	102.0	79.0		50.724723399966024	0.033450999995693564
2	45.32637239998439	stim	51		2	unambiguous	left	1.0	preferred_right	102.0	79.0		50.75817439996172	0.033003400021698326
2	45.35937580000609	stim	52		2	unambiguous	left	1.0	preferred_right	102.0	79.0		50.791177799983416	0.033851200016215444
2	45.39322700002231	stim	53		2	unambiguous	left	1.0	preferred_right	102.0	79.0		50.82502899999963	0.03334159997757524
2	45.42656859999988	stim	54		2	unambiguous	left	1.0	preferred_right	102.0	79.0		50.858370599977206	0.03333639999618754
2	45.45990499999607	stim	55		2	unambiguous	left	1.0	preferred_right	102.0	79.0		50.891706999973394	0.033304400043562055
2	45.49320940003963	stim	56		2	unambiguous	left	1.0	preferred_right	102.0	79.0		50.925011400016956	0.03324449999490753
2	45.52645390003454	stim	57		2	unambiguous	left	1.0	preferred_right	102.0	79.0		50.958255900011864	0.03336739999940619
2	45.559821300033946	stim	58		2	unambiguous	left	1.0	preferred_right	102.0	79.0		50.99162330001127	0.05081349995452911
2	45.610634799988475	stim	59		2	unambiguous	left	1.0	preferred_right	102.0	79.0		51.0424367999658	0.06688420003047213
2	45.67751900001895	stim	60		2	unambiguous	left	1.0	preferred_right	102.0	79.0		51.10932099999627	0.04996430000755936
