trial_nr	onset	event_type	phase	response	nr_frames	block_type	trial_type	response_hand	phase_length	last_frame	key_duration	onset_abs	duration
0	0.017619699938222766	stim	0		0	break	break	preferred	1.0	0.0		5.2871575999306515	3.826692800037563
0	3.8443124999757856	break	0	space	0	break	break	preferred	1.0	0.0	0.09504479996394366	9.113850399968214	0.2644027000060305
0	4.108715199981816	break	0	space	0	break	break	preferred	1.0	0.0	0.1054463000036776	9.378253099974245	0.2511497000232339
0	4.35986490000505	break	0	space	599	break	break	preferred	1.0	0.0	0.0723915999988094	9.629402799997479	5.691153899999335
1	10.051018800004385	stim	0		2	ambiguous	ambiguous	preferred	600.0	30.0		15.320556699996814	0.033314600004814565
1	10.0843334000092	stim	1		2	ambiguous	ambiguous	preferred	600.0	30.0		15.353871300001629	0.03340829990338534
1	10.117741699912585	stim	2		2	ambiguous	ambiguous	preferred	600.0	30.0		15.387279599905014	0.03322350000962615
1	10.150965199922211	stim	3		2	ambiguous	ambiguous	preferred	600.0	30.0		15.42050309991464	0.0335035000462085
1	10.18446869996842	stim	4		2	ambiguous	ambiguous	preferred	600.0	30.0		15.454006599960849	0.03364599996712059
1	10.21811469993554	stim	5		2	ambiguous	ambiguous	preferred	600.0	30.0		15.48765259992797	0.03295789996627718
1	10.251072599901818	stim	6		2	ambiguous	ambiguous	preferred	600.0	30.0		15.520610499894246	0.03330380003899336
1	10.284376399940811	stim	7		2	ambiguous	ambiguous	preferred	600.0	30.0		15.55391429993324	0.03328279999550432
1	10.317659199936315	stim	8		2	ambiguous	ambiguous	preferred	600.0	30.0		15.587197099928744	0.03333030000794679
1	10.350989499944262	stim	9		2	ambiguous	ambiguous	preferred	600.0	30.0		15.620527399936691	0.03338449995499104
1	10.384373999899253	stim	10		2	ambiguous	ambiguous	preferred	600.0	30.0		15.653911899891682	0.03384650009684265
1	10.418220499996096	stim	11		2	ambiguous	ambiguous	preferred	600.0	30.0		15.687758399988525	0.0328812999650836
1	10.45110179996118	stim	12		2	ambiguous	ambiguous	preferred	600.0	30.0		15.720639699953608	0.03341649996582419
1	10.484518299927004	stim	13		2	ambiguous	ambiguous	preferred	600.0	30.0		15.754056199919432	0.03338020003866404
1	10.517898499965668	stim	14		2	ambiguous	ambiguous	preferred	600.0	30.0		15.787436399958096	0.03331540001090616
1	10.551213899976574	stim	15		2	ambiguous	ambiguous	preferred	600.0	30.0		15.820751799969003	0.033358899992890656
1	10.584572799969465	stim	16		2	ambiguous	ambiguous	preferred	600.0	30.0		15.854110699961893	0.03374979994259775
1	10.618322599912062	stim	17		2	ambiguous	ambiguous	preferred	600.0	30.0		15.887860499904491	0.03332430007867515
1	10.651646899990737	stim	18		2	ambiguous	ambiguous	preferred	600.0	30.0		15.921184799983166	0.03296549990773201
1	10.68461239989847	stim	19		2	ambiguous	ambiguous	preferred	600.0	30.0		15.954150299890898	0.03332040004897863
1	10.717932799947448	stim	20		2	ambiguous	ambiguous	preferred	600.0	30.0		15.987470699939877	0.03338539996184409
1	10.751318199909292	stim	21		2	ambiguous	ambiguous	preferred	600.0	30.0		16.02085609990172	0.03326370008289814
1	10.78458189999219	stim	22		2	ambiguous	ambiguous	preferred	600.0	30.0		16.05411979998462	0.0336517000105232
1	10.818233600002714	stim	23		2	ambiguous	ambiguous	preferred	600.0	30.0		16.087771499995142	0.03385749994777143
1	10.852091099950485	stim	24		2	ambiguous	ambiguous	preferred	600.0	30.0		16.121628999942914	0.03276870003901422
1	10.8848597999895	stim	25		2	ambiguous	ambiguous	preferred	600.0	30.0		16.154397699981928	0.03336539992596954
1	10.918225199915469	stim	26		2	ambiguous	ambiguous	preferred	600.0	30.0		16.187763099907897	0.033390399999916553
1	10.951615599915385	stim	27		2	ambiguous	ambiguous	preferred	600.0	30.0		16.221153499907814	0.033334000036120415
1	10.984949599951506	stim	28		2	ambiguous	ambiguous	preferred	600.0	30.0		16.254487499943934	0.0333173000253737
1	11.01826689997688	stim	29		2	ambiguous	ambiguous	preferred	600.0	30.0		16.287804799969308	0.034200699999928474
1	11.052467599976808	stim	30		2	ambiguous	ambiguous	preferred	600.0	30.0		16.322005499969237	0.032835999969393015
1	11.0853035999462	stim	31		2	ambiguous	ambiguous	preferred	600.0	30.0		16.35484149993863	0.033379700034856796
1	11.118683299981058	stim	32		2	ambiguous	ambiguous	preferred	600.0	30.0		16.388221199973486	0.0331919000018388
1	11.151875199982896	stim	33		2	ambiguous	ambiguous	preferred	600.0	30.0		16.421413099975325	0.03327839996200055
1	11.185153599944897	stim	34		2	ambiguous	ambiguous	preferred	600.0	30.0		16.454691499937326	0.03334630001336336
1	11.21849989995826	stim	35		2	ambiguous	ambiguous	preferred	600.0	30.0		16.48803779995069	0.033605000004172325
1	11.252104899962433	stim	36		2	ambiguous	ambiguous	preferred	600.0	30.0		16.52164279995486	0.03376250003930181
1	11.285867400001734	stim	37		2	ambiguous	ambiguous	preferred	600.0	30.0		16.555405299994163	0.032714299974031746
1	11.318581699975766	stim	38		2	ambiguous	ambiguous	preferred	600.0	30.0		16.588119599968195	0.03333140001632273
1	11.351913099992089	stim	39		2	ambiguous	ambiguous	preferred	600.0	30.0		16.621450999984518	0.03328410000540316
1	11.385197199997492	stim	40		2	ambiguous	ambiguous	preferred	600.0	30.0		16.65473509998992	0.0334459999576211
1	11.418643199955113	stim	41		2	ambiguous	ambiguous	preferred	600.0	30.0		16.688181099947542	0.03329629998188466
1	11.451939499936998	stim	42		2	ambiguous	ambiguous	preferred	600.0	30.0		16.721477399929427	0.034016899997368455
1	11.485956399934366	stim	43		2	ambiguous	ambiguous	preferred	600.0	30.0		16.755494299926795	0.0328770000487566
1	11.518833399983123	stim	44		2	ambiguous	ambiguous	preferred	600.0	30.0		16.78837129997555	0.03334369999356568
1	11.552177099976689	stim	45		2	ambiguous	ambiguous	preferred	600.0	30.0		16.821714999969117	0.033698200015351176
1	11.58587529999204	stim	46		2	ambiguous	ambiguous	preferred	600.0	30.0		16.85541319998447	0.03337889991234988
1	11.61925419990439	stim	47		2	ambiguous	ambiguous	preferred	600.0	30.0		16.88879209989682	0.033326500095427036
1	11.652580699999817	stim	48		2	ambiguous	ambiguous	preferred	600.0	30.0		16.922118599992245	0.03375820000655949
1	11.686338900006376	stim	49		2	ambiguous	ambiguous	preferred	600.0	30.0		16.955876799998805	0.03318819997366518
1	11.719527099980041	stim	50		2	ambiguous	ambiguous	preferred	600.0	30.0		16.98906499997247	0.03327259991783649
1	11.752799699897878	stim	51		2	ambiguous	ambiguous	preferred	600.0	30.0		17.022337599890307	0.03327090002130717
1	11.786070599919185	stim	52		2	ambiguous	ambiguous	preferred	600.0	30.0		17.055608499911614	0.033279100083746016
1	11.819349700002931	stim	53		2	ambiguous	ambiguous	preferred	600.0	30.0		17.08888759999536	0.033333699917420745
1	11.852683399920352	stim	54		2	ambiguous	ambiguous	preferred	600.0	30.0		17.12222129991278	0.033553500077687204
1	11.886236899998039	stim	55		2	ambiguous	ambiguous	preferred	600.0	30.0		17.155774799990468	0.033831699984148145
1	11.920068599982187	stim	56		2	ambiguous	ambiguous	preferred	600.0	30.0		17.189606499974616	0.03330080001614988
1	11.953369399998337	stim	57		2	ambiguous	ambiguous	preferred	600.0	30.0		17.222907299990766	0.03317109995987266
1	11.98654049995821	stim	58		2	ambiguous	ambiguous	preferred	600.0	30.0		17.25607839995064	0.03324529994279146
1	12.019785799901001	stim	59		2	ambiguous	ambiguous	preferred	600.0	30.0		17.28932369989343	0.03361190005671233
1	12.053397699957713	stim	60		2	ambiguous	ambiguous	preferred	600.0	30.0		17.322935599950142	0.03362330002710223
1	12.087020999984816	stim	61		2	ambiguous	ambiguous	preferred	600.0	30.0		17.356558899977244	0.0340911999810487
1	12.121112199965864	stim	62		2	ambiguous	ambiguous	preferred	600.0	30.0		17.390650099958293	0.03270750003866851
1	12.153819700004533	stim	63		2	ambiguous	ambiguous	preferred	600.0	30.0		17.42335759999696	0.03330489993095398
1	12.187124599935487	stim	64		2	ambiguous	ambiguous	preferred	600.0	30.0		17.456662499927916	0.03331520000938326
1	12.22043979994487	stim	65		2	ambiguous	ambiguous	preferred	600.0	30.0		17.4899776999373	0.03328380000311881
1	12.253723599947989	stim	66		2	ambiguous	ambiguous	preferred	600.0	30.0		17.523261499940418	0.0333402999676764
1	12.287063899915665	stim	67		2	ambiguous	ambiguous	preferred	600.0	30.0		17.556601799908094	0.033794600050896406
1	12.320858499966562	stim	68		2	ambiguous	ambiguous	preferred	600.0	30.0		17.59039639995899	0.03304689994547516
1	12.353905399912037	stim	69		2	ambiguous	ambiguous	preferred	600.0	30.0		17.623443299904466	0.03346380009315908
1	12.387369200005196	stim	70		2	ambiguous	ambiguous	preferred	600.0	30.0		17.656907099997625	0.03343349997885525
1	12.420802699984051	stim	71		2	ambiguous	ambiguous	preferred	600.0	30.0		17.69034059997648	0.03322939993813634
1	12.454032099922188	stim	72		2	ambiguous	ambiguous	preferred	600.0	30.0		17.723569999914616	0.0335464000236243
1	12.487578499945812	stim	73		2	ambiguous	ambiguous	preferred	600.0	30.0		17.75711639993824	0.033784399973228574
1	12.52136289991904	stim	74		2	ambiguous	ambiguous	preferred	600.0	30.0		17.79090079991147	0.033273000037297606
1	12.554635899956338	stim	75		2	ambiguous	ambiguous	preferred	600.0	30.0		17.824173799948767	0.03337049996480346
1	12.588006399921142	stim	76		2	ambiguous	ambiguous	preferred	600.0	30.0		17.85754429991357	0.03338170005008578
1	12.621388099971227	stim	77		2	ambiguous	ambiguous	preferred	600.0	30.0		17.890925999963656	0.03350469993893057
1	12.654892799910158	stim	78		2	ambiguous	ambiguous	preferred	600.0	30.0		17.924430699902587	0.03326080006081611
1	12.688153599970974	stim	79		2	ambiguous	ambiguous	preferred	600.0	30.0		17.957691499963403	0.03357610001694411
1	12.721729699987918	stim	80		2	ambiguous	ambiguous	preferred	600.0	30.0		17.991267599980347	0.033513100002892315
1	12.75524279999081	stim	81		2	ambiguous	ambiguous	preferred	600.0	30.0		18.02478069998324	0.03304000000935048
1	12.788282800000161	stim	82		2	ambiguous	ambiguous	preferred	600.0	30.0		18.05782069999259	0.03338689997326583
1	12.821669699973427	stim	83		2	ambiguous	ambiguous	preferred	600.0	30.0		18.091207599965855	0.033287800033576787
1	12.854957500007004	stim	84		2	ambiguous	ambiguous	preferred	600.0	30.0		18.124495399999432	0.03332089993637055
1	12.888278399943374	stim	85		2	ambiguous	ambiguous	preferred	600.0	30.0		18.157816299935803	0.03391450003255159
1	12.922192899975926	stim	86		2	ambiguous	ambiguous	preferred	600.0	30.0		18.191730799968354	0.033791600028052926
1	12.955984500003979	stim	87		2	ambiguous	ambiguous	preferred	600.0	30.0		18.225522399996407	0.03292229992803186
1	12.98890679993201	stim	88		2	ambiguous	ambiguous	preferred	600.0	30.0		18.25844469992444	0.03323240007739514
1	13.022139200009406	stim	89		2	ambiguous	ambiguous	preferred	600.0	30.0		18.291677100001834	0.033773599890992045
1	13.055912799900398	stim	90		2	ambiguous	ambiguous	preferred	600.0	30.0		18.325450699892826	0.049411200103349984
1	13.105324000003748	stim	91		2	ambiguous	ambiguous	preferred	600.0	30.0		18.374861899996176	0.03349739999976009
1	13.138821400003508	stim	92		2	ambiguous	ambiguous	preferred	600.0	30.0		18.408359299995936	0.03417339990846813
1	13.172994799911976	stim	93		2	ambiguous	ambiguous	preferred	600.0	30.0		18.442532699904405	0.03242519998457283
1	13.205419999896549	stim	94		2	ambiguous	ambiguous	preferred	600.0	30.0		18.474957899888977	0.03347360005136579
1	13.238893599947914	stim	95		2	ambiguous	ambiguous	preferred	600.0	30.0		18.508431499940343	0.033363800030201674
1	13.272257399978116	stim	96		2	ambiguous	ambiguous	preferred	600.0	30.0		18.541795299970545	0.03329349996056408
1	13.30555089993868	stim	97		2	ambiguous	ambiguous	preferred	600.0	30.0		18.57508879993111	0.03336130001116544
1	13.338912199949846	stim	98		2	ambiguous	ambiguous	preferred	600.0	30.0		18.608450099942274	0.033972400007769465
1	13.372884599957615	stim	99		2	ambiguous	ambiguous	preferred	600.0	30.0		18.642422499950044	0.03276319999713451
1	13.40564779995475	stim	100		2	ambiguous	ambiguous	preferred	600.0	30.0		18.67518569994718	0.03331349999643862
1	13.438961299951188	stim	101		2	ambiguous	ambiguous	preferred	600.0	30.0		18.708499199943617	0.033352000056765974
1	13.472313300007954	stim	102		2	ambiguous	ambiguous	preferred	600.0	30.0		18.741851200000383	0.03351809992454946
1	13.505831399932504	stim	103		2	ambiguous	ambiguous	preferred	600.0	30.0		18.775369299924932	0.03376260004006326
1	13.539593999972567	stim	104		2	ambiguous	ambiguous	preferred	600.0	30.0		18.809131899964996	0.03378529998008162
1	13.573379299952649	stim	105		2	ambiguous	ambiguous	preferred	600.0	30.0		18.842917199945077	0.03303569997660816
1	13.606414999929257	stim	106		2	ambiguous	ambiguous	preferred	600.0	30.0		18.875952899921685	0.033505700062960386
1	13.639920699992217	stim	107		2	ambiguous	ambiguous	preferred	600.0	30.0		18.909458599984646	0.03377300000283867
1	13.673693699995056	stim	108		2	ambiguous	ambiguous	preferred	600.0	30.0		18.943231599987485	0.03366879990790039
1	13.707362499902956	stim	109		2	ambiguous	ambiguous	preferred	600.0	30.0		18.976900399895385	0.03321780008263886
1	13.740580299985595	stim	110		2	ambiguous	ambiguous	preferred	600.0	30.0		19.010118199978024	0.033890799968503416
1	13.774471099954098	stim	111		2	ambiguous	ambiguous	preferred	600.0	30.0		19.044008999946527	0.03325330000370741
1	13.807724399957806	stim	112		2	ambiguous	ambiguous	preferred	600.0	30.0		19.077262299950235	0.03326970001216978
1	13.840994099969976	stim	113		2	ambiguous	ambiguous	preferred	600.0	30.0		19.110531999962404	0.03377750003710389
1	13.87477160000708	stim	114		2	ambiguous	ambiguous	preferred	600.0	30.0		19.14430949999951	0.0334067998919636
1	13.908178399899043	stim	115		2	ambiguous	ambiguous	preferred	600.0	30.0		19.177716299891472	0.03362360002938658
1	13.94180199992843	stim	116		2	ambiguous	ambiguous	preferred	600.0	30.0		19.21133989992086	0.033662699977867305
1	13.975464699906297	stim	117		2	ambiguous	ambiguous	preferred	600.0	30.0		19.245002599898726	0.03333370003383607
1	14.008798399940133	stim	118		2	ambiguous	ambiguous	preferred	600.0	30.0		19.278336299932562	0.033421400003135204
1	14.042219799943268	stim	119		2	ambiguous	ambiguous	preferred	600.0	30.0		19.311757699935697	0.033439300023019314
1	14.075659099966288	stim	120		2	ambiguous	ambiguous	preferred	600.0	30.0		19.345196999958716	0.033941200003027916
1	14.109600299969316	stim	121		2	ambiguous	ambiguous	preferred	600.0	30.0		19.379138199961744	0.03336659993510693
1	14.142966899904422	stim	122		2	ambiguous	ambiguous	preferred	600.0	30.0		19.41250479989685	0.034212600090540946
1	14.177179499994963	stim	123		2	ambiguous	ambiguous	preferred	600.0	30.0		19.446717399987392	0.033213499933481216
1	14.210392999928445	stim	124		2	ambiguous	ambiguous	preferred	600.0	30.0		19.479930899920873	0.033122300053946674
1	14.243515299982391	stim	125		2	ambiguous	ambiguous	preferred	600.0	30.0		19.51305319997482	0.03357159998267889
1	14.27708689996507	stim	126		2	ambiguous	ambiguous	preferred	600.0	30.0		19.5466247999575	0.03337309998460114
1	14.310459999949671	stim	127		2	ambiguous	ambiguous	preferred	600.0	30.0		19.5799978999421	0.03336560004390776
1	14.343825599993579	stim	128		2	ambiguous	ambiguous	preferred	600.0	30.0		19.613363499986008	0.0331847999477759
1	14.377010399941355	stim	129		2	ambiguous	ambiguous	preferred	600.0	30.0		19.646548299933784	0.0392186000244692
1	14.416228999965824	stim	130		2	ambiguous	ambiguous	preferred	600.0	30.0		19.685766899958253	0.04431609995663166
1	14.460545099922456	stim	131		2	ambiguous	ambiguous	preferred	600.0	30.0		19.730082999914885	0.033353100065141916
1	14.493898199987598	stim	132		2	ambiguous	ambiguous	preferred	600.0	30.0		19.763436099980026	0.03377360000740737
1	14.527671799995005	stim	133		2	ambiguous	ambiguous	preferred	600.0	30.0		19.797209699987434	0.033296599984169006
1	14.560968399979174	stim	134		2	ambiguous	ambiguous	preferred	600.0	30.0		19.830506299971603	0.03334929991979152
1	14.594317699898966	stim	135		2	ambiguous	ambiguous	preferred	600.0	30.0		19.863855599891394	0.03673100005835295
1	14.631048699957319	stim	136		2	ambiguous	ambiguous	preferred	600.0	30.0		19.900586599949747	0.033475799951702356
1	14.664524499909021	stim	137		2	ambiguous	ambiguous	preferred	600.0	30.0		19.93406239990145	0.03374950005672872
1	14.69827399996575	stim	138		2	ambiguous	ambiguous	preferred	600.0	30.0		19.96781189995818	0.03319430002011359
1	14.731468299985863	stim	139		2	ambiguous	ambiguous	preferred	600.0	30.0		20.001006199978292	0.033485200023278594
1	14.764953500009142	stim	140		2	ambiguous	ambiguous	preferred	600.0	30.0		20.03449140000157	0.032214799895882607
1	14.797168299905024	stim	141		2	ambiguous	ambiguous	preferred	600.0	30.0		20.066706199897453	0.03638850001152605
1	14.83355679991655	stim	142		2	ambiguous	ambiguous	preferred	600.0	30.0		20.10309469990898	0.03157480002846569
1	14.865131599945016	stim	143		2	ambiguous	ambiguous	preferred	600.0	30.0		20.134669499937445	0.03318939998280257
1	14.898320999927819	stim	144		2	ambiguous	ambiguous	preferred	600.0	30.0		20.167858899920247	0.033507200074382126
1	14.931828200002201	stim	145		2	ambiguous	ambiguous	preferred	600.0	30.0		20.20136609999463	0.033707299968227744
1	14.965535499970429	stim	146		2	ambiguous	ambiguous	preferred	600.0	30.0		20.235073399962857	0.03318509995006025
1	14.998720599920489	stim	147		2	ambiguous	ambiguous	preferred	600.0	30.0		20.268258499912918	0.0349866000469774
1	15.033707199967466	stim	148		2	ambiguous	ambiguous	preferred	600.0	30.0		20.303245099959895	0.03177310002502054
1	15.065480299992487	stim	149		2	ambiguous	ambiguous	preferred	600.0	30.0		20.335018199984916	0.032883599982596934
1	15.098363899975084	stim	150		2	ambiguous	ambiguous	preferred	600.0	30.0		20.367901799967512	0.033357499982230365
1	15.131721399957314	stim	151		2	ambiguous	ambiguous	preferred	600.0	30.0		20.401259299949743	0.033345900010317564
1	15.165067299967632	stim	152		2	ambiguous	ambiguous	preferred	600.0	30.0		20.43460519996006	0.0337805999442935
1	15.198847899911925	stim	153		2	ambiguous	ambiguous	preferred	600.0	30.0		20.468385799904354	0.033156200079247355
1	15.232004099991173	stim	154		2	ambiguous	ambiguous	preferred	600.0	30.0		20.5015419999836	0.03490480000618845
1	15.266908899997361	stim	155		2	ambiguous	ambiguous	preferred	600.0	30.0		20.53644679998979	0.03145909996237606
1	15.298367999959737	stim	156		2	ambiguous	ambiguous	preferred	600.0	30.0		20.567905899952166	0.03212400001939386
1	15.330491999979131	stim	157		2	ambiguous	ambiguous	preferred	600.0	30.0		20.60002989997156	0.03459679998923093
1	15.365088799968362	stim	158		2	ambiguous	ambiguous	preferred	600.0	30.0		20.63462669996079	0.03357309999410063
1	15.398661899962462	stim	159		2	ambiguous	ambiguous	preferred	600.0	30.0		20.66819979995489	0.03315859998110682
1	15.43182049994357	stim	160		2	ambiguous	ambiguous	preferred	600.0	30.0		20.701358399935998	0.033657200052402914
1	15.465477699995972	stim	161		2	ambiguous	ambiguous	preferred	600.0	30.0		20.7350155999884	0.032874599914066494
1	15.498352299910039	stim	162		2	ambiguous	ambiguous	preferred	600.0	30.0		20.767890199902467	0.033325100084766746
1	15.531677399994805	stim	163		2	ambiguous	ambiguous	preferred	600.0	30.0		20.801215299987234	0.03335699997842312
1	15.565034399973229	stim	164		2	ambiguous	ambiguous	preferred	600.0	30.0		20.834572299965657	0.03328720002900809
1	15.598321600002237	stim	165		2	ambiguous	ambiguous	preferred	600.0	30.0		20.867859499994665	0.03279219998512417
1	15.63111379998736	stim	166		2	ambiguous	ambiguous	preferred	600.0	30.0		20.90065169997979	0.05105140001978725
1	15.682165200007148	stim	167		2	ambiguous	ambiguous	preferred	600.0	30.0		20.951703099999577	0.032918699900619686
1	15.715083899907768	stim	168		2	ambiguous	ambiguous	preferred	600.0	30.0		20.984621799900196	0.03325169999152422
1	15.748335599899292	stim	169		2	ambiguous	ambiguous	preferred	600.0	30.0		21.01787349989172	0.03331070009153336
1	15.781646299990825	stim	170		2	ambiguous	ambiguous	preferred	600.0	30.0		21.051184199983254	0.03345059999264777
1	15.815096899983473	stim	171		2	ambiguous	ambiguous	preferred	600.0	30.0		21.084634799975902	0.03381139994598925
1	15.848908299929462	stim	172		2	ambiguous	ambiguous	preferred	600.0	30.0		21.11844619992189	0.033012500032782555
1	15.881920799962245	stim	173		2	ambiguous	ambiguous	preferred	600.0	30.0		21.151458699954674	0.0346951000392437
1	15.916615900001489	stim	174		2	ambiguous	ambiguous	preferred	600.0	30.0		21.186153799993917	0.031697899918071926
1	15.94831379991956	stim	175		2	ambiguous	ambiguous	preferred	600.0	30.0		21.21785169991199	0.0333791000302881
1	15.981692899949849	stim	176		2	ambiguous	ambiguous	preferred	600.0	30.0		21.251230799942277	0.033283600001595914
1	16.014976499951445	stim	177		2	ambiguous	ambiguous	preferred	600.0	30.0		21.284514399943873	0.03373479994479567
1	16.04871129989624	stim	178		2	ambiguous	ambiguous	preferred	600.0	30.0		21.31824919988867	0.0337446000194177
1	16.082455899915658	stim	179		2	ambiguous	ambiguous	preferred	600.0	30.0		21.351993799908087	0.03456679999362677
1	16.117022699909285	stim	180		2	ambiguous	ambiguous	preferred	600.0	30.0		21.386560599901713	0.03160530002787709
1	16.148627999937162	stim	181		2	ambiguous	ambiguous	preferred	600.0	30.0		21.41816589992959	0.03336320002563298
1	16.181991199962795	stim	182		2	ambiguous	ambiguous	preferred	600.0	30.0		21.451529099955224	0.03335259994491935
1	16.215343799907714	stim	183		2	ambiguous	ambiguous	preferred	600.0	30.0		21.484881699900143	0.0335661000572145
1	16.24890989996493	stim	184		2	ambiguous	ambiguous	preferred	600.0	30.0		21.518447799957357	0.03394210000988096
1	16.28285199997481	stim	185		2	ambiguous	ambiguous	preferred	600.0	30.0		21.55238989996724	0.03243849996943027
1	16.31529049994424	stim	186		2	ambiguous	ambiguous	preferred	600.0	30.0		21.58482839993667	0.03472009999677539
1	16.350010599941015	stim	187		2	ambiguous	ambiguous	preferred	600.0	30.0		21.619548499933444	0.031987000023946166
1	16.38199759996496	stim	188		2	ambiguous	ambiguous	preferred	600.0	30.0		21.65153549995739	0.033314700005576015
1	16.415312299970537	stim	189		2	ambiguous	ambiguous	preferred	600.0	30.0		21.684850199962966	0.03338529996108264
1	16.44869759993162	stim	190		2	ambiguous	ambiguous	preferred	600.0	30.0		21.71823549992405	0.03373190003912896
1	16.48242949997075	stim	191		2	ambiguous	ambiguous	preferred	600.0	30.0		21.751967399963178	0.0330876000225544
1	16.515517099993303	stim	192		2	ambiguous	ambiguous	preferred	600.0	30.0		21.785054999985732	0.034676200011745095
1	16.55019330000505	stim	193		2	ambiguous	ambiguous	preferred	600.0	30.0		21.819731199997477	0.031847599893808365
1	16.582040899898857	stim	194		2	ambiguous	ambiguous	preferred	600.0	30.0		21.851578799891286	0.03323520009871572
1	16.615276099997573	stim	195		2	ambiguous	ambiguous	preferred	600.0	30.0		21.88481399999	0.03343219996895641
1	16.64870829996653	stim	196		2	ambiguous	ambiguous	preferred	600.0	30.0		21.918246199958958	0.03363940003328025
1	16.68234769999981	stim	197		2	ambiguous	ambiguous	preferred	600.0	30.0		21.951885599992238	0.03384849999565631
1	16.716196199995466	stim	198		2	ambiguous	ambiguous	preferred	600.0	30.0		21.985734099987894	0.03278469992801547
1	16.74898089992348	stim	199		2	ambiguous	ambiguous	preferred	600.0	30.0		22.01851879991591	0.033332500024698675
1	16.78231339994818	stim	200		2	ambiguous	ambiguous	preferred	600.0	30.0		22.05185129994061	0.03334550000727177
1	16.81565889995545	stim	201		2	ambiguous	ambiguous	preferred	600.0	30.0		22.08519679994788	0.03333699994254857
1	16.848995899898	stim	202		2	ambiguous	ambiguous	preferred	600.0	30.0		22.11853379989043	0.03360320010688156
1	16.88259910000488	stim	203		2	ambiguous	ambiguous	preferred	600.0	30.0		22.15213699999731	0.03415229998063296
1	16.916751399985515	stim	204		2	ambiguous	ambiguous	preferred	600.0	30.0		22.186289299977943	0.03249939996749163
1	16.949250799953006	stim	205		2	ambiguous	ambiguous	preferred	600.0	30.0		22.218788699945435	0.03420989995356649
1	16.983460699906573	stim	206		2	ambiguous	ambiguous	preferred	600.0	30.0		22.252998599899	0.03247950004879385
1	17.015940199955367	stim	207		2	ambiguous	ambiguous	preferred	600.0	30.0		22.285478099947795	0.03347969998139888
1	17.049419899936765	stim	208		2	ambiguous	ambiguous	preferred	600.0	30.0		22.318957799929194	0.033366400049999356
1	17.082786299986765	stim	209		2	ambiguous	ambiguous	preferred	600.0	30.0		22.352324199979194	0.03403619991149753
1	17.116822499898262	stim	210		2	ambiguous	ambiguous	preferred	600.0	30.0		22.38636039989069	0.032977000111714005
1	17.149799500009976	stim	211		2	ambiguous	ambiguous	preferred	600.0	30.0		22.419337400002405	0.033307199948467314
1	17.183106699958444	stim	212		2	ambiguous	ambiguous	preferred	600.0	30.0		22.452644599950872	0.03325660002883524
1	17.21636329998728	stim	213		2	ambiguous	ambiguous	preferred	600.0	30.0		22.485901199979708	0.03334359999280423
1	17.249706899980083	stim	214		2	ambiguous	ambiguous	preferred	600.0	30.0		22.519244799972512	0.03331540001090616
1	17.28302229999099	stim	215		2	ambiguous	ambiguous	preferred	600.0	30.0		22.552560199983418	0.033590200007893145
1	17.316612499998882	stim	216		2	ambiguous	ambiguous	preferred	600.0	30.0		22.58615039999131	0.03371099999640137
1	17.350323499995284	stim	217		2	ambiguous	ambiguous	preferred	600.0	30.0		22.619861399987713	0.033308399957604706
1	17.38363189995289	stim	218		2	ambiguous	ambiguous	preferred	600.0	30.0		22.653169799945317	0.033199100056663156
1	17.41683100000955	stim	219		2	ambiguous	ambiguous	preferred	600.0	30.0		22.68636890000198	0.03338169993367046
1	17.450212699943222	stim	220		2	ambiguous	ambiguous	preferred	600.0	30.0		22.71975059993565	0.03333180001936853
1	17.48354449996259	stim	221		2	ambiguous	ambiguous	preferred	600.0	30.0		22.75308239995502	0.03346950002014637
1	17.517013999982737	stim	222		2	ambiguous	ambiguous	preferred	600.0	30.0		22.786551899975166	0.03494329995010048
1	17.551957299932837	stim	223		2	ambiguous	ambiguous	preferred	600.0	30.0		22.821495199925266	0.031779900076799095
1	17.583737200009637	stim	224		2	ambiguous	ambiguous	preferred	600.0	30.0		22.853275100002065	0.033161699888296425
1	17.616898899897933	stim	225		2	ambiguous	ambiguous	preferred	600.0	30.0		22.88643679989036	0.03332270006649196
1	17.650221599964425	stim	226		2	ambiguous	ambiguous	preferred	600.0	30.0		22.919759499956854	0.03334940003696829
1	17.683571000001393	stim	227		2	ambiguous	ambiguous	preferred	600.0	30.0		22.953108899993822	0.03351839992683381
1	17.717089399928227	stim	228		2	ambiguous	ambiguous	preferred	600.0	30.0		22.986627299920656	0.033944200025871396
1	17.7510335999541	stim	229		2	ambiguous	ambiguous	preferred	600.0	30.0		23.020571499946527	0.03304550005123019
1	17.78407910000533	stim	230		2	ambiguous	ambiguous	preferred	600.0	30.0		23.053616999997757	0.03330949996598065
1	17.81738859997131	stim	231		2	ambiguous	ambiguous	preferred	600.0	30.0		23.086926499963738	0.03325580002274364
1	17.850644399994053	stim	232		2	ambiguous	ambiguous	preferred	600.0	30.0		23.12018229998648	0.033321699942462146
1	17.883966099936515	stim	233		2	ambiguous	ambiguous	preferred	600.0	30.0		23.153503999928944	0.03334079997148365
1	17.917306899908	stim	234		2	ambiguous	ambiguous	preferred	600.0	30.0		23.186844799900427	0.0336513000074774
1	17.950958199915476	stim	235		2	ambiguous	ambiguous	preferred	600.0	30.0		23.220496099907905	0.03383550001308322
1	17.98479369992856	stim	236		2	ambiguous	ambiguous	preferred	600.0	30.0		23.254331599920988	0.032735200016759336
1	18.01752889994532	stim	237		2	ambiguous	ambiguous	preferred	600.0	30.0		23.287066799937747	0.03322830004617572
1	18.050757199991494	stim	238		2	ambiguous	ambiguous	preferred	600.0	30.0		23.320295099983923	0.03354789991863072
1	18.084305099910125	stim	239		2	ambiguous	ambiguous	preferred	600.0	30.0		23.353842999902554	0.03361290006432682
1	18.117917999974452	stim	240		2	ambiguous	ambiguous	preferred	600.0	30.0		23.38745589996688	0.03337029996328056
1	18.151288299937733	stim	241		2	ambiguous	ambiguous	preferred	600.0	30.0		23.42082619993016	0.03417810006067157
1	18.185466399998404	stim	242		2	ambiguous	ambiguous	preferred	600.0	30.0		23.455004299990833	0.032715899986214936
1	18.21818229998462	stim	243		2	ambiguous	ambiguous	preferred	600.0	30.0		23.487720199977048	0.03337029996328056
1	18.2515525999479	stim	244		2	ambiguous	ambiguous	preferred	600.0	30.0		23.52109049994033	0.03328690002672374
1	18.284839499974623	stim	245		2	ambiguous	ambiguous	preferred	600.0	30.0		23.554377399967052	0.0338812000118196
1	18.318720699986443	stim	246		2	ambiguous	ambiguous	preferred	600.0	30.0		23.58825859997887	0.033538399962708354
1	18.35225909994915	stim	247		2	ambiguous	ambiguous	preferred	600.0	30.0		23.62179699994158	0.034216800006106496
1	18.386475899955258	stim	248		2	ambiguous	ambiguous	preferred	600.0	30.0		23.656013799947686	0.03247880004346371
1	18.41895469999872	stim	249		2	ambiguous	ambiguous	preferred	600.0	30.0		23.68849259999115	0.033375300001353025
1	18.452330000000075	stim	250		2	ambiguous	ambiguous	preferred	600.0	30.0		23.721867899992503	0.033250699983909726
1	18.485580699983984	stim	251		2	ambiguous	ambiguous	preferred	600.0	30.0		23.755118599976413	0.03339649992994964
1	18.518977199913934	stim	252		2	ambiguous	ambiguous	preferred	600.0	30.0		23.788515099906363	0.033286700025200844
1	18.552263899939135	stim	253		2	ambiguous	ambiguous	preferred	600.0	30.0		23.821801799931563	0.033651100005954504
1	18.58591499994509	stim	254		2	ambiguous	ambiguous	preferred	600.0	30.0		23.855452899937518	0.03331389999948442
1	18.619228899944574	stim	255		2	ambiguous	ambiguous	preferred	600.0	30.0		23.888766799937002	0.03328410000540316
1	18.652512999949977	stim	256		2	ambiguous	ambiguous	preferred	600.0	30.0		23.922050899942406	0.0336826000129804
1	18.686195599962957	stim	257		2	ambiguous	ambiguous	preferred	600.0	30.0		23.955733499955386	0.03315100003965199
1	18.71934660000261	stim	258		2	ambiguous	ambiguous	preferred	600.0	30.0		23.988884499995038	0.03333169990219176
1	18.7526782999048	stim	259		2	ambiguous	ambiguous	preferred	600.0	30.0		24.02221619989723	0.03355870000086725
1	18.786236999905668	stim	260		2	ambiguous	ambiguous	preferred	600.0	30.0		24.055774899898097	0.03338949999306351
1	18.81962649989873	stim	261		2	ambiguous	ambiguous	preferred	600.0	30.0		24.08916439989116	0.0332122000399977
1	18.85283869993873	stim	262		2	ambiguous	ambiguous	preferred	600.0	30.0		24.122376599931158	0.03337620000820607
1	18.886214899946935	stim	263		2	ambiguous	ambiguous	preferred	600.0	30.0		24.155752799939364	0.03323219995945692
1	18.919447099906392	stim	264		2	ambiguous	ambiguous	preferred	600.0	30.0		24.18898499989882	0.033541700104251504
1	18.952988800010644	stim	265		2	ambiguous	ambiguous	preferred	600.0	30.0		24.222526700003073	0.033151499927043915
1	18.986140299937688	stim	266		2	ambiguous	ambiguous	preferred	600.0	30.0		24.255678199930117	0.03388590004760772
1	19.020026199985296	stim	267		2	ambiguous	ambiguous	preferred	600.0	30.0		24.289564099977724	0.03307080001104623
1	19.05309699999634	stim	268		2	ambiguous	ambiguous	preferred	600.0	30.0		24.32263489998877	0.033345800009556115
1	19.086442800005898	stim	269		2	ambiguous	ambiguous	preferred	600.0	30.0		24.355980699998327	0.033283600001595914
1	19.119726400007494	stim	270		2	ambiguous	ambiguous	preferred	600.0	30.0		24.389264299999923	0.033310199971310794
1	19.153036599978805	stim	271		2	ambiguous	ambiguous	preferred	600.0	30.0		24.422574499971233	0.03330090001691133
1	19.186337499995716	stim	272		2	ambiguous	ambiguous	preferred	600.0	30.0		24.455875399988145	0.03379419993143529
1	19.22013169992715	stim	273		2	ambiguous	ambiguous	preferred	600.0	30.0		24.48966959991958	0.0330754000460729
1	19.253207099973224	stim	274		2	ambiguous	ambiguous	preferred	600.0	30.0		24.522744999965653	0.03329789999406785
1	19.286504999967292	stim	275		2	ambiguous	ambiguous	preferred	600.0	30.0		24.55604289995972	0.033345600008033216
1	19.319850599975325	stim	276		2	ambiguous	ambiguous	preferred	600.0	30.0		24.589388499967754	0.03356989996973425
1	19.35342049994506	stim	277		2	ambiguous	ambiguous	preferred	600.0	30.0		24.622958399937488	0.03356430004350841
1	19.386984799988568	stim	278		2	ambiguous	ambiguous	preferred	600.0	30.0		24.656522699980997	0.03387729998212308
1	19.42086209997069	stim	279		2	ambiguous	ambiguous	preferred	600.0	30.0		24.69039999996312	0.049724599928595126
1	19.470586699899286	stim	280		2	ambiguous	ambiguous	preferred	600.0	30.0		24.740124599891715	0.033276200061663985
1	19.50386289996095	stim	281		2	ambiguous	ambiguous	preferred	600.0	30.0		24.77340079995338	0.03377119998913258
1	19.537634099950083	stim	282		2	ambiguous	ambiguous	preferred	600.0	30.0		24.80717199994251	0.0332973999902606
1	19.570931499940343	stim	283		2	ambiguous	ambiguous	preferred	600.0	30.0		24.840469399932772	0.03351540002040565
1	19.60444689996075	stim	284		2	ambiguous	ambiguous	preferred	600.0	30.0		24.873984799953178	0.03382669994607568
1	19.638273599906825	stim	285		2	ambiguous	ambiguous	preferred	600.0	30.0		24.907811499899253	0.032923400052823126
1	19.671196999959648	stim	286		2	ambiguous	ambiguous	preferred	600.0	30.0		24.940734899952076	0.03332709998358041
1	19.704524099943228	stim	287		2	ambiguous	ambiguous	preferred	600.0	30.0		24.974061999935657	0.0333484000293538
1	19.737872499972582	stim	288		2	ambiguous	ambiguous	preferred	600.0	30.0		25.00741039996501	0.033616799977608025
1	19.77148929995019	stim	289		2	ambiguous	ambiguous	preferred	600.0	30.0		25.04102719994262	0.033890999970026314
1	19.805380299920216	stim	290		2	ambiguous	ambiguous	preferred	600.0	30.0		25.074918199912645	0.0337252999888733
1	19.83910559990909	stim	291		2	ambiguous	ambiguous	preferred	600.0	30.0		25.10864349990152	0.03326250007376075
1	19.87236809998285	stim	292		2	ambiguous	ambiguous	preferred	600.0	30.0		25.14190599997528	0.03362909995485097
1	19.9059971999377	stim	293		2	ambiguous	ambiguous	preferred	600.0	30.0		25.17553509993013	0.03324150003027171
1	19.939238699967973	stim	294		2	ambiguous	ambiguous	preferred	600.0	30.0		25.2087765999604	0.03336400003172457
1	19.972602699999698	stim	295		2	ambiguous	ambiguous	preferred	600.0	30.0		25.242140599992126	0.03328129998408258
1	20.00588399998378	stim	296		2	ambiguous	ambiguous	preferred	600.0	30.0		25.27542189997621	0.033725899993442
1	20.039609899977222	stim	297		2	ambiguous	ambiguous	preferred	600.0	30.0		25.30914779996965	0.033166499924845994
1	20.072776399902068	stim	298		2	ambiguous	ambiguous	preferred	600.0	30.0		25.342314299894497	0.03318330005276948
1	20.105959699954838	stim	299		2	ambiguous	ambiguous	preferred	600.0	30.0		25.375497599947266	0.03352900000754744
1	20.139488699962385	stim	300		2	ambiguous	ambiguous	preferred	600.0	30.0		25.409026599954814	0.03336140001192689
1	20.172850099974312	stim	301		2	ambiguous	ambiguous	preferred	600.0	30.0		25.44238799996674	0.03332990000490099
1	20.206179999979213	stim	302		2	ambiguous	ambiguous	preferred	600.0	30.0		25.47571789997164	0.03336280002258718
1	20.2395428000018	stim	303		2	ambiguous	ambiguous	preferred	600.0	30.0		25.50908069999423	0.03368439991027117
1	20.27322719991207	stim	304		2	ambiguous	ambiguous	preferred	600.0	30.0		25.5427650999045	0.032948800013400614
1	20.306175999925472	stim	305		2	ambiguous	ambiguous	preferred	600.0	30.0		25.5757138999179	0.03345670003909618
1	20.339632699964568	stim	306		2	ambiguous	ambiguous	preferred	600.0	30.0		25.609170599956997	0.03370389994233847
1	20.373336599906906	stim	307		2	ambiguous	ambiguous	preferred	600.0	30.0		25.642874499899335	0.03396710008382797
1	20.407303699990734	stim	308		2	ambiguous	ambiguous	preferred	600.0	30.0		25.676841599983163	0.03338029992301017
1	20.440683999913745	stim	309		2	ambiguous	ambiguous	preferred	600.0	30.0		25.710221899906173	0.0340798000106588
1	20.474763799924403	stim	310		2	ambiguous	ambiguous	preferred	600.0	30.0		25.744301699916832	0.03254390007350594
1	20.50730769999791	stim	311		2	ambiguous	ambiguous	preferred	600.0	30.0		25.776845599990338	0.033418399980291724
1	20.5407260999782	stim	312		2	ambiguous	ambiguous	preferred	600.0	30.0		25.81026399997063	0.03332970000337809
1	20.57405579998158	stim	313		2	ambiguous	ambiguous	preferred	600.0	30.0		25.843593699974008	0.03336399991530925
1	20.60741979989689	stim	314		2	ambiguous	ambiguous	preferred	600.0	30.0		25.876957699889317	0.03324390004854649
1	20.640663699945435	stim	315		2	ambiguous	ambiguous	preferred	600.0	30.0		25.910201599937864	0.03422200004570186
1	20.674885699991137	stim	316		2	ambiguous	ambiguous	preferred	600.0	30.0		25.944423599983566	0.03305279999040067
1	20.707938499981537	stim	317		2	ambiguous	ambiguous	preferred	600.0	30.0		25.977476399973966	0.03342390002217144
1	20.74136240000371	stim	318		2	ambiguous	ambiguous	preferred	600.0	30.0		26.010900299996138	0.033431599964387715
1	20.774793999968097	stim	319		2	ambiguous	ambiguous	preferred	600.0	30.0		26.044331899960525	0.033295099972747266
1	20.808089099940844	stim	320		2	ambiguous	ambiguous	preferred	600.0	30.0		26.077626999933273	0.033292600070126355
1	20.84138170001097	stim	321		2	ambiguous	ambiguous	preferred	600.0	30.0		26.1109196000034	0.03396599995903671
1	20.875347699970007	stim	322		2	ambiguous	ambiguous	preferred	600.0	30.0		26.144885599962436	0.033218299970030785
1	20.908565999940038	stim	323		2	ambiguous	ambiguous	preferred	600.0	30.0		26.178103899932466	0.033196300035342574
1	20.94176229997538	stim	324		2	ambiguous	ambiguous	preferred	600.0	30.0		26.21130019996781	0.033692199969664216
1	20.975454499945045	stim	325		2	ambiguous	ambiguous	preferred	600.0	30.0		26.244992399937473	0.033322000061161816
1	21.008776500006206	stim	326		2	ambiguous	ambiguous	preferred	600.0	30.0		26.278314399998635	0.03336419991683215
1	21.04214069992304	stim	327		2	ambiguous	ambiguous	preferred	600.0	30.0		26.311678599915467	0.033341099973767996
1	21.075481799896806	stim	328		2	ambiguous	ambiguous	preferred	600.0	30.0		26.345019699889235	0.03417070000432432
1	21.10965249990113	stim	329		2	ambiguous	ambiguous	preferred	600.0	30.0		26.37919039989356	0.03250309999566525
1	21.142155599896796	stim	330		2	ambiguous	ambiguous	preferred	600.0	30.0		26.411693499889225	0.03331950004212558
1	21.17547509993892	stim	331		2	ambiguous	ambiguous	preferred	600.0	30.0		26.44501299993135	0.03335649997461587
1	21.208831599913538	stim	332		2	ambiguous	ambiguous	preferred	600.0	30.0		26.478369499905966	0.03343690000474453
1	21.242268499918282	stim	333		2	ambiguous	ambiguous	preferred	600.0	30.0		26.51180639991071	0.03318790008779615
1	21.275456400006078	stim	334		2	ambiguous	ambiguous	preferred	600.0	30.0		26.544994299998507	0.03412989992648363
1	21.309586299932562	stim	335		2	ambiguous	ambiguous	preferred	600.0	30.0		26.57912419992499	0.03273470001295209
1	21.342320999945514	stim	336		2	ambiguous	ambiguous	preferred	600.0	30.0		26.611858899937943	0.03326110006310046
1	21.375582100008614	stim	337		2	ambiguous	ambiguous	preferred	600.0	30.0		26.645120000001043	0.03339489991776645
1	21.40897699992638	stim	338		2	ambiguous	ambiguous	preferred	600.0	30.0		26.67851489991881	0.03401890001259744
1	21.44299589993898	stim	339		2	ambiguous	ambiguous	preferred	600.0	30.0		26.712533799931407	0.03354390000458807
1	21.476539799943566	stim	340		2	ambiguous	ambiguous	preferred	600.0	30.0		26.746077699935995	0.03394780005328357
1	21.51048759999685	stim	341		2	ambiguous	ambiguous	preferred	600.0	30.0		26.78002549998928	0.0331847999477759
1	21.543672399944626	stim	342		2	ambiguous	ambiguous	preferred	600.0	30.0		26.813210299937055	0.033775300020352006
1	21.577447699964978	stim	343		2	ambiguous	ambiguous	preferred	600.0	30.0		26.846985599957407	0.03334620001260191
1	21.61079389997758	stim	344		2	ambiguous	ambiguous	preferred	600.0	30.0		26.88033179997001	0.03680419991724193
1	21.64759809989482	stim	345		2	ambiguous	ambiguous	preferred	600.0	30.0		26.91713599988725	0.029850600054487586
1	21.67744869994931	stim	346		2	ambiguous	ambiguous	preferred	600.0	30.0		26.946986599941738	0.03602430003229529
1	21.713472999981605	stim	347		2	ambiguous	ambiguous	preferred	600.0	30.0		26.983010899974033	0.03448689996730536
1	21.74795989994891	stim	348		2	ambiguous	ambiguous	preferred	600.0	30.0		27.01749779994134	0.03339200001209974
1	21.78135189996101	stim	349		2	ambiguous	ambiguous	preferred	600.0	30.0		27.05088979995344	0.033341199974529445
1	21.81469309993554	stim	350		2	ambiguous	ambiguous	preferred	600.0	30.0		27.084230999927968	0.0332545000128448
1	21.847947599948384	stim	351		2	ambiguous	ambiguous	preferred	600.0	30.0		27.117485499940813	0.03361459996085614
1	21.88156219990924	stim	352		2	ambiguous	ambiguous	preferred	600.0	30.0		27.15110009990167	0.033548900042660534
1	21.9151110999519	stim	353		2	ambiguous	ambiguous	preferred	600.0	30.0		27.18464899994433	0.03487720002885908
1	21.94998829998076	stim	354		2	ambiguous	ambiguous	preferred	600.0	30.0		27.21952619997319	0.04816090001258999
1	21.99814919999335	stim	355		2	ambiguous	ambiguous	preferred	600.0	30.0		27.26768709998578	0.03191989997867495
1	22.030069099972025	stim	356		2	ambiguous	ambiguous	preferred	600.0	30.0		27.299606999964453	0.034855399979278445
1	22.064924499951303	stim	357		2	ambiguous	ambiguous	preferred	600.0	30.0		27.33446239994373	0.03389570000581443
1	22.098820199957117	stim	358		2	ambiguous	ambiguous	preferred	600.0	30.0		27.368358099949546	0.03303409996442497
1	22.131854299921542	stim	359		2	ambiguous	ambiguous	preferred	600.0	30.0		27.40139219991397	0.034719299990683794
1	22.166573599912226	stim	360		2	ambiguous	ambiguous	preferred	600.0	30.0		27.436111499904655	0.031755900010466576
1	22.198329499922693	stim	361		2	ambiguous	ambiguous	preferred	600.0	30.0		27.46786739991512	0.03319390001706779
1	22.23152339993976	stim	362		2	ambiguous	ambiguous	preferred	600.0	30.0		27.50106129993219	0.03337800002191216
1	22.264901399961673	stim	363		2	ambiguous	ambiguous	preferred	600.0	30.0		27.5344392999541	0.03366760001517832
1	22.29856899997685	stim	364		2	ambiguous	ambiguous	preferred	600.0	30.0		27.56810689996928	0.032305500004440546
1	22.33087449998129	stim	365		2	ambiguous	ambiguous	preferred	600.0	30.0		27.60041239997372	0.034561799955554307
1	22.365436299936846	stim	366		2	ambiguous	ambiguous	preferred	600.0	30.0		27.634974199929275	0.0328028000658378
1	22.398239100002684	stim	367		2	ambiguous	ambiguous	preferred	600.0	30.0		27.667776999995112	0.033247799961827695
1	22.43148689996451	stim	368		2	ambiguous	ambiguous	preferred	600.0	30.0		27.70102479995694	0.03340860002208501
1	22.464895499986596	stim	369		2	ambiguous	ambiguous	preferred	600.0	30.0		27.734433399979025	0.033596199937164783
1	22.49849169992376	stim	370		2	ambiguous	ambiguous	preferred	600.0	30.0		27.76802959991619	0.03359810006804764
1	22.53208979999181	stim	371		2	ambiguous	ambiguous	preferred	600.0	30.0		27.801627699984238	0.032899599988013506
1	22.564989399979822	stim	372		2	ambiguous	ambiguous	preferred	600.0	30.0		27.83452729997225	0.03483060002326965
1	22.599820000003092	stim	373		2	ambiguous	ambiguous	preferred	600.0	30.0		27.86935789999552	0.031838599941693246
1	22.631658599944785	stim	374		2	ambiguous	ambiguous	preferred	600.0	30.0		27.901196499937214	0.03325149999000132
1	22.664910099934787	stim	375		2	ambiguous	ambiguous	preferred	600.0	30.0		27.934447999927215	0.03334810002706945
1	22.698258199961856	stim	376		2	ambiguous	ambiguous	preferred	600.0	30.0		27.967796099954285	0.03369269997347146
1	22.731950899935327	stim	377		2	ambiguous	ambiguous	preferred	600.0	30.0		28.001488799927756	0.0333408999722451
1	22.765291799907573	stim	378		2	ambiguous	ambiguous	preferred	600.0	30.0		28.0348296999	0.03480270004365593
1	22.80009449995123	stim	379		2	ambiguous	ambiguous	preferred	600.0	30.0		28.069632399943657	0.031807900057174265
1	22.831902400008403	stim	380		2	ambiguous	ambiguous	preferred	600.0	30.0		28.10144030000083	0.03314359998330474
1	22.865045999991708	stim	381		2	ambiguous	ambiguous	preferred	600.0	30.0		28.134583899984136	0.03354749991558492
1	22.898593499907292	stim	382		2	ambiguous	ambiguous	preferred	600.0	30.0		28.16813139989972	0.033880400005728006
1	22.93247389991302	stim	383		2	ambiguous	ambiguous	preferred	600.0	30.0		28.20201179990545	0.034368099994026124
1	22.966841999907047	stim	384		2	ambiguous	ambiguous	preferred	600.0	30.0		28.236379899899475	0.032250800053589046
1	22.999092799960636	stim	385		2	ambiguous	ambiguous	preferred	600.0	30.0		28.268630699953064	0.034087699954397976
1	23.033180499915034	stim	386		2	ambiguous	ambiguous	preferred	600.0	30.0		28.302718399907462	0.03267670003697276
1	23.065857199952006	stim	387		2	ambiguous	ambiguous	preferred	600.0	30.0		28.335395099944435	0.03352229995653033
1	23.099379499908537	stim	388		2	ambiguous	ambiguous	preferred	600.0	30.0		28.368917399900965	0.03373350005131215
1	23.13311299995985	stim	389		2	ambiguous	ambiguous	preferred	600.0	30.0		28.402650899952278	0.03377149999141693
1	23.166884499951266	stim	390		2	ambiguous	ambiguous	preferred	600.0	30.0		28.436422399943694	0.03266489994712174
1	23.199549399898387	stim	391		2	ambiguous	ambiguous	preferred	600.0	30.0		28.469087299890816	0.03387380007188767
1	23.233423199970275	stim	392		2	ambiguous	ambiguous	preferred	600.0	30.0		28.502961099962704	0.03272230003494769
1	23.266145500005223	stim	393		2	ambiguous	ambiguous	preferred	600.0	30.0		28.53568339999765	0.033313299994915724
1	23.29945880000014	stim	394		2	ambiguous	ambiguous	preferred	600.0	30.0		28.568996699992567	0.033336899941787124
1	23.332795699941926	stim	395		2	ambiguous	ambiguous	preferred	600.0	30.0		28.602333599934354	0.034053900046274066
1	23.3668495999882	stim	396		2	ambiguous	ambiguous	preferred	600.0	30.0		28.63638749998063	0.033079099957831204
1	23.39992869994603	stim	397		2	ambiguous	ambiguous	preferred	600.0	30.0		28.66946659993846	0.03332879999652505
1	23.433257499942556	stim	398		2	ambiguous	ambiguous	preferred	600.0	30.0		28.702795399934985	0.03331249998882413
1	23.46656999993138	stim	399		2	ambiguous	ambiguous	preferred	600.0	30.0		28.73610789992381	0.03331400000024587
1	23.499883999931626	stim	400		2	ambiguous	ambiguous	preferred	600.0	30.0		28.769421899924055	0.03334349999204278
1	23.53322749992367	stim	401		2	ambiguous	ambiguous	preferred	600.0	30.0		28.802765399916098	0.03370180004276335
1	23.566929299966432	stim	402		2	ambiguous	ambiguous	preferred	600.0	30.0		28.83646719995886	0.03324389993213117
1	23.600173199898563	stim	403		2	ambiguous	ambiguous	preferred	600.0	30.0		28.869711099890992	0.033242100034840405
1	23.633415299933404	stim	404		2	ambiguous	ambiguous	preferred	600.0	30.0		28.902953199925832	0.033470300026237965
1	23.66688559995964	stim	405		2	ambiguous	ambiguous	preferred	600.0	30.0		28.93642349995207	0.03333170001860708
1	23.70021729997825	stim	406		2	ambiguous	ambiguous	preferred	600.0	30.0		28.969755199970677	0.03331279999110848
1	23.733530099969357	stim	407		2	ambiguous	ambiguous	preferred	600.0	30.0		29.003067999961786	0.03343259997200221
1	23.76696269994136	stim	408		2	ambiguous	ambiguous	preferred	600.0	30.0		29.036500599933788	0.0344889999832958
1	23.801451699924655	stim	409		2	ambiguous	ambiguous	preferred	600.0	30.0		29.070989599917084	0.032479200046509504
1	23.833930899971165	stim	410		2	ambiguous	ambiguous	preferred	600.0	30.0		29.103468799963593	0.03334920003544539
1	23.86728010000661	stim	411		2	ambiguous	ambiguous	preferred	600.0	30.0		29.13681799999904	0.03323849989101291
1	23.900518599897623	stim	412		2	ambiguous	ambiguous	preferred	600.0	30.0		29.170056499890052	0.03331389999948442
1	23.933832499897107	stim	413		2	ambiguous	ambiguous	preferred	600.0	30.0		29.203370399889536	0.03338260005693883
1	23.967215099954046	stim	414		2	ambiguous	ambiguous	preferred	600.0	30.0		29.236752999946475	0.03378649998921901
1	24.001001599943265	stim	415		2	ambiguous	ambiguous	preferred	600.0	30.0		29.270539499935694	0.0331498000305146
1	24.03415139997378	stim	416		2	ambiguous	ambiguous	preferred	600.0	30.0		29.30368929996621	0.03333210002165288
1	24.067483499995433	stim	417		2	ambiguous	ambiguous	preferred	600.0	30.0		29.33702139998786	0.03325059998314828
1	24.10073409997858	stim	418		2	ambiguous	ambiguous	preferred	600.0	30.0		29.37027199997101	0.033339799963869154
1	24.13407389994245	stim	419		2	ambiguous	ambiguous	preferred	600.0	30.0		29.40361179993488	0.033339499961584806
1	24.167413399904035	stim	420		2	ambiguous	ambiguous	preferred	600.0	30.0		29.436951299896464	0.03357930004131049
1	24.200992699945346	stim	421		2	ambiguous	ambiguous	preferred	600.0	30.0		29.470530599937774	0.03350500005763024
1	24.234497700002976	stim	422		2	ambiguous	ambiguous	preferred	600.0	30.0		29.504035599995404	0.03321139991749078
1	24.267709099920467	stim	423		2	ambiguous	ambiguous	preferred	600.0	30.0		29.537246999912895	0.03325570002198219
1	24.30096479994245	stim	424		2	ambiguous	ambiguous	preferred	600.0	30.0		29.570502699934877	0.03348630003165454
1	24.334451099974103	stim	425		2	ambiguous	ambiguous	preferred	600.0	30.0		29.603988999966532	0.03380299999844283
1	24.368254099972546	stim	426		2	ambiguous	ambiguous	preferred	600.0	30.0		29.637791999964975	0.033440800034441054
1	24.401694900006987	stim	427		2	ambiguous	ambiguous	preferred	600.0	30.0		29.671232799999416	0.0337496999418363
1	24.435444599948823	stim	428		2	ambiguous	ambiguous	preferred	600.0	30.0		29.704982499941252	0.033422600012272596
1	24.468867199961096	stim	429		2	ambiguous	ambiguous	preferred	600.0	30.0		29.738405099953525	0.03320569999050349
1	24.5020728999516	stim	430		2	ambiguous	ambiguous	preferred	600.0	30.0		29.77161079994403	0.0333091999636963
1	24.535382099915296	stim	431		2	ambiguous	ambiguous	preferred	600.0	30.0		29.804919999907725	0.03332250006496906
1	24.568704599980265	stim	432		2	ambiguous	ambiguous	preferred	600.0	30.0		29.838242499972694	0.0335384999634698
1	24.602243099943735	stim	433		2	ambiguous	ambiguous	preferred	600.0	30.0		29.871780999936163	0.03393909998703748
1	24.636182199930772	stim	434		2	ambiguous	ambiguous	preferred	600.0	30.0		29.9057200999232	0.03258820006158203
1	24.668770399992354	stim	435		2	ambiguous	ambiguous	preferred	600.0	30.0		29.938308299984783	0.033594299922697246
1	24.70236469991505	stim	436		2	ambiguous	ambiguous	preferred	600.0	30.0		29.97190259990748	0.03343690000474453
1	24.735801599919796	stim	437		2	ambiguous	ambiguous	preferred	600.0	30.0		30.005339499912225	0.033698500017635524
1	24.76950009993743	stim	438		2	ambiguous	ambiguous	preferred	600.0	30.0		30.03903799992986	0.033568000071682036
1	24.803068100009114	stim	439		2	ambiguous	ambiguous	preferred	600.0	30.0		30.072606000001542	0.03375489998143166
1	24.836822999990545	stim	440		2	ambiguous	ambiguous	preferred	600.0	30.0		30.106360899982974	0.03305289999116212
1	24.869875899981707	stim	441		2	ambiguous	ambiguous	preferred	600.0	30.0		30.139413799974136	0.033311799983493984
1	24.9031876999652	stim	442		2	ambiguous	ambiguous	preferred	600.0	30.0		30.17272559995763	0.03335079993121326
1	24.936538499896415	stim	443		2	ambiguous	ambiguous	preferred	600.0	30.0		30.206076399888843	0.03350700007285923
1	24.970045499969274	stim	444		2	ambiguous	ambiguous	preferred	600.0	30.0		30.239583399961703	0.0332668999908492
1	25.003312399960123	stim	445		2	ambiguous	ambiguous	preferred	600.0	30.0		30.27285029995255	0.033847799990326166
1	25.03716019995045	stim	446		2	ambiguous	ambiguous	preferred	600.0	30.0		30.306698099942878	0.03293989994563162
1	25.07010009989608	stim	447		2	ambiguous	ambiguous	preferred	600.0	30.0		30.33963799988851	0.03331800003070384
1	25.103418099926785	stim	448		2	ambiguous	ambiguous	preferred	600.0	30.0		30.372955999919213	0.03330950008239597
1	25.13672760000918	stim	449		2	ambiguous	ambiguous	preferred	600.0	30.0		30.40626550000161	0.03328959993086755
1	25.170017199940048	stim	450		2	ambiguous	ambiguous	preferred	600.0	30.0		30.439555099932477	0.033557799994014204
1	25.203574999934062	stim	451		2	ambiguous	ambiguous	preferred	600.0	30.0		30.47311289992649	0.03388750005979091
1	25.237462499993853	stim	452		2	ambiguous	ambiguous	preferred	600.0	30.0		30.507000399986282	0.03303069993853569
1	25.27049319993239	stim	453		2	ambiguous	ambiguous	preferred	600.0	30.0		30.540031099924818	0.03315989999100566
1	25.303653099923395	stim	454		2	ambiguous	ambiguous	preferred	600.0	30.0		30.573190999915823	0.03363890002947301
1	25.337291999952868	stim	455		2	ambiguous	ambiguous	preferred	600.0	30.0		30.606829899945296	0.03321719996165484
1	25.370509199914522	stim	456		2	ambiguous	ambiguous	preferred	600.0	30.0		30.64004709990695	0.03382510005030781
1	25.40433429996483	stim	457		2	ambiguous	ambiguous	preferred	600.0	30.0		30.67387219995726	0.03407860000152141
1	25.43841289996635	stim	458		2	ambiguous	ambiguous	preferred	600.0	30.0		30.70795079995878	0.03308069997001439
1	25.471493599936366	stim	459		2	ambiguous	ambiguous	preferred	600.0	30.0		30.741031499928795	0.033431399962864816
1	25.50492499989923	stim	460		2	ambiguous	ambiguous	preferred	600.0	30.0		30.77446289989166	0.033417100086808205
1	25.53834209998604	stim	461		2	ambiguous	ambiguous	preferred	600.0	30.0		30.807879999978468	0.03329429996665567
1	25.571636399952695	stim	462		2	ambiguous	ambiguous	preferred	600.0	30.0		30.841174299945123	0.03331199998501688
1	25.60494839993771	stim	463		2	ambiguous	ambiguous	preferred	600.0	30.0		30.87448629993014	0.033631799975410104
1	25.63858019991312	stim	464		2	ambiguous	ambiguous	preferred	600.0	30.0		30.90811809990555	0.03380770003423095
1	25.672387899947353	stim	465		2	ambiguous	ambiguous	preferred	600.0	30.0		30.94192579993978	0.03265900001861155
1	25.705046899965964	stim	466		2	ambiguous	ambiguous	preferred	600.0	30.0		30.974584799958393	0.03355489997193217
1	25.738601799937896	stim	467		2	ambiguous	ambiguous	preferred	600.0	30.0		31.008139699930325	0.03373170003760606
1	25.772333499975502	stim	468		2	ambiguous	ambiguous	preferred	600.0	30.0		31.04187139996793	0.03387359995394945
1	25.806207099929452	stim	469		2	ambiguous	ambiguous	preferred	600.0	30.0		31.07574499992188	0.03361310006584972
1	25.8398201999953	stim	470		2	ambiguous	ambiguous	preferred	600.0	30.0		31.10935809998773	0.033446199959143996
1	25.873266399954446	stim	471		2	ambiguous	ambiguous	preferred	600.0	30.0		31.142804299946874	0.03326990001369268
1	25.90653629996814	stim	472		2	ambiguous	ambiguous	preferred	600.0	30.0		31.176074199960567	0.033311599981971085
1	25.93984789995011	stim	473		2	ambiguous	ambiguous	preferred	600.0	30.0		31.209385799942538	0.03334610001184046
1	25.97319399996195	stim	474		2	ambiguous	ambiguous	preferred	600.0	30.0		31.24273189995438	0.03324390004854649
1	26.006437900010496	stim	475		2	ambiguous	ambiguous	preferred	600.0	30.0		31.275975800002925	0.03343049995601177
1	26.039868399966508	stim	476		2	ambiguous	ambiguous	preferred	600.0	30.0		31.309406299958937	0.03390929999295622
1	26.073777699959464	stim	477		2	ambiguous	ambiguous	preferred	600.0	30.0		31.343315599951893	0.032827100018039346
1	26.106604799977504	stim	478		2	ambiguous	ambiguous	preferred	600.0	30.0		31.376142699969932	0.03337650001049042
1	26.139981299987994	stim	479		2	ambiguous	ambiguous	preferred	600.0	30.0		31.409519199980423	0.03330040001310408
1	26.173281700001098	stim	480		2	ambiguous	ambiguous	preferred	600.0	30.0		31.442819599993527	0.03332239994779229
1	26.20660409994889	stim	481		2	ambiguous	ambiguous	preferred	600.0	30.0		31.47614199994132	0.03330370003823191
1	26.239907799987122	stim	482		2	ambiguous	ambiguous	preferred	600.0	30.0		31.50944569997955	0.034218500019051135
1	26.274126300006174	stim	483		2	ambiguous	ambiguous	preferred	600.0	30.0		31.543664199998602	0.03300599998328835
1	26.307132299989462	stim	484		2	ambiguous	ambiguous	preferred	600.0	30.0		31.57667019998189	0.033449199981987476
1	26.34058149997145	stim	485		2	ambiguous	ambiguous	preferred	600.0	30.0		31.610119399963878	0.033327699988149107
1	26.3739091999596	stim	486		2	ambiguous	ambiguous	preferred	600.0	30.0		31.643447099952027	0.03332289995159954
1	26.407232099911198	stim	487		2	ambiguous	ambiguous	preferred	600.0	30.0		31.676769999903627	0.033536900067701936
1	26.4407689999789	stim	488		2	ambiguous	ambiguous	preferred	600.0	30.0		31.71030689997133	0.03374079999048263
1	26.474509799969383	stim	489		2	ambiguous	ambiguous	preferred	600.0	30.0		31.74404769996181	0.03322969994042069
1	26.507739499909803	stim	490		2	ambiguous	ambiguous	preferred	600.0	30.0		31.777277399902232	0.03331640001852065
1	26.541055899928324	stim	491		2	ambiguous	ambiguous	preferred	600.0	30.0		31.810593799920753	0.03336250002030283
1	26.574418399948627	stim	492		2	ambiguous	ambiguous	preferred	600.0	30.0		31.843956299941055	0.033640600042417645
1	26.608058999991044	stim	493		2	ambiguous	ambiguous	preferred	600.0	30.0		31.877596899983473	0.0332276999251917
1	26.641286699916236	stim	494		2	ambiguous	ambiguous	preferred	600.0	30.0		31.910824599908665	0.03349060006439686
1	26.674777299980633	stim	495		2	ambiguous	ambiguous	preferred	600.0	30.0		31.94431519997306	0.033946899930015206
1	26.708724199910648	stim	496		2	ambiguous	ambiguous	preferred	600.0	30.0		31.978262099903077	0.03264550003223121
1	26.74136969994288	stim	497		2	ambiguous	ambiguous	preferred	600.0	30.0		32.01090759993531	0.0333597999997437
1	26.774729499942623	stim	498		2	ambiguous	ambiguous	preferred	600.0	30.0		32.04426739993505	0.033317600027658045
1	26.80804709997028	stim	499		2	ambiguous	ambiguous	preferred	600.0	30.0		32.07758499996271	0.03333350003231317
1	26.841380600002594	stim	500		2	ambiguous	ambiguous	preferred	600.0	30.0		32.11091849999502	0.05039190000388771
1	26.891772500006482	stim	501		2	ambiguous	ambiguous	preferred	600.0	30.0		32.16131039999891	0.04962339997291565
1	26.941395899979398	stim	502		2	ambiguous	ambiguous	preferred	600.0	30.0		32.210933799971826	0.03334620001260191
1	26.974742099992	stim	503		2	ambiguous	ambiguous	preferred	600.0	30.0		32.24427999998443	0.03332299995236099
1	27.00806509994436	stim	504		2	ambiguous	ambiguous	preferred	600.0	30.0		32.27760299993679	0.03345750004518777
1	27.04152259998955	stim	505		2	ambiguous	ambiguous	preferred	600.0	30.0		32.31106049998198	0.03315679996740073
1	27.07467939995695	stim	506		2	ambiguous	ambiguous	preferred	600.0	30.0		32.34421729994938	0.033846499980427325
1	27.108525899937376	stim	507		2	ambiguous	ambiguous	preferred	600.0	30.0		32.378063799929805	0.033316100016236305
1	27.141841999953613	stim	508		2	ambiguous	ambiguous	preferred	600.0	30.0		32.41137989994604	0.03317710000555962
1	27.175019099959172	stim	509		2	ambiguous	ambiguous	preferred	600.0	30.0		32.4445569999516	0.033332400023937225
1	27.20835149998311	stim	510		2	ambiguous	ambiguous	preferred	600.0	30.0		32.47788939997554	0.03346599999349564
1	27.241817499976605	stim	511		2	ambiguous	ambiguous	preferred	600.0	30.0		32.511355399969034	0.03349709999747574
1	27.27531459997408	stim	512		2	ambiguous	ambiguous	preferred	600.0	30.0		32.54485249996651	0.03377209999598563
1	27.309086699970067	stim	513		2	ambiguous	ambiguous	preferred	600.0	30.0		32.578624599962495	0.033689199946820736
1	27.342775899916887	stim	514		2	ambiguous	ambiguous	preferred	600.0	30.0		32.612313799909316	0.03314640000462532
1	27.375922299921513	stim	515		2	ambiguous	ambiguous	preferred	600.0	30.0		32.64546019991394	0.03331339999567717
1	27.40923569991719	stim	516		2	ambiguous	ambiguous	preferred	600.0	30.0		32.67877359990962	0.0335274999961257
1	27.442763199913315	stim	517		2	ambiguous	ambiguous	preferred	600.0	30.0		32.712301099905744	0.03340290009509772
1	27.476166100008413	stim	518		2	ambiguous	ambiguous	preferred	600.0	30.0		32.74570400000084	0.03336979995947331
1	27.509535899967887	stim	519		2	ambiguous	ambiguous	preferred	600.0	30.0		32.779073799960315	0.03542410000227392
1	27.54495999997016	stim	520		2	ambiguous	ambiguous	preferred	600.0	30.0		32.81449789996259	0.031286099925637245
1	27.576246099895798	stim	521		2	ambiguous	ambiguous	preferred	600.0	30.0		32.845783999888226	0.033677900093607605
1	27.609923999989405	stim	522		2	ambiguous	ambiguous	preferred	600.0	30.0		32.879461899981834	0.03356719994917512
1	27.64349119993858	stim	523		2	ambiguous	ambiguous	preferred	600.0	30.0		32.91302909993101	0.0338891000719741
1	27.677380300010554	stim	524		2	ambiguous	ambiguous	preferred	600.0	30.0		32.94691820000298	0.03338599996641278
1	27.710766299976967	stim	525		2	ambiguous	ambiguous	preferred	600.0	30.0		32.980304199969396	0.03864469996187836
1	27.749410999938846	stim	526		2	ambiguous	ambiguous	preferred	600.0	30.0		33.018948899931274	0.04476079996675253
1	27.794171799905598	stim	527		2	ambiguous	ambiguous	preferred	600.0	30.0		33.06370969989803	0.03331520000938326
1	27.82748699991498	stim	528		2	ambiguous	ambiguous	preferred	600.0	30.0		33.09702489990741	0.03324170003179461
1	27.860728699946776	stim	529		2	ambiguous	ambiguous	preferred	600.0	30.0		33.130266599939205	0.03689750004559755
1	27.897626199992374	stim	530		2	ambiguous	ambiguous	preferred	600.0	30.0		33.1671640999848	0.03034189995378256
1	27.927968099946156	stim	531		2	ambiguous	ambiguous	preferred	600.0	30.0		33.197505999938585	0.03865530004259199
1	27.966623399988748	stim	532		2	ambiguous	ambiguous	preferred	600.0	30.0		33.23616129998118	0.03135960001964122
1	27.99798300000839	stim	533		2	ambiguous	ambiguous	preferred	600.0	30.0		33.26752090000082	0.03322079998906702
1	28.031203799997456	stim	534		2	ambiguous	ambiguous	preferred	600.0	30.0		33.300741699989885	0.033435999997891486
1	28.064639799995348	stim	535		2	ambiguous	ambiguous	preferred	600.0	30.0		33.33417769998778	0.03371089999563992
1	28.098350699990988	stim	536		2	ambiguous	ambiguous	preferred	600.0	30.0		33.36788859998342	0.03328839992173016
1	28.131639099912718	stim	537		2	ambiguous	ambiguous	preferred	600.0	30.0		33.40117699990515	0.05145210004411638
1	28.183091199956834	stim	538		2	ambiguous	ambiguous	preferred	600.0	30.0		33.45262909994926	0.0316541000502184
1	28.214745300007053	stim	539		2	ambiguous	ambiguous	preferred	600.0	30.0		33.48428319999948	0.033332199905999005
1	28.24807749991305	stim	540		2	ambiguous	ambiguous	preferred	600.0	30.0		33.51761539990548	0.03321740007959306
1	28.281294899992645	stim	541		2	ambiguous	ambiguous	preferred	600.0	30.0		33.55083279998507	0.033702499931678176
1	28.314997399924323	stim	542		2	ambiguous	ambiguous	preferred	600.0	30.0		33.58453529991675	0.033430200070142746
1	28.348427599994466	stim	543		2	ambiguous	ambiguous	preferred	600.0	30.0		33.617965499986894	0.033489199937321246
1	28.381916799931787	stim	544		2	ambiguous	ambiguous	preferred	600.0	30.0		33.651454699924216	0.032767900032922626
1	28.41468469996471	stim	545		2	ambiguous	ambiguous	preferred	600.0	30.0		33.68422259995714	0.032203300041146576
1	28.446888000005856	stim	546		2	ambiguous	ambiguous	preferred	600.0	30.0		33.716425899998285	0.034457299974747
1	28.481345299980603	stim	547		2	ambiguous	ambiguous	preferred	600.0	30.0		33.75088319997303	0.03340149996802211
1	28.514746799948625	stim	548		2	ambiguous	ambiguous	preferred	600.0	30.0		33.784284699941054	0.033593100029975176
1	28.5483398999786	stim	549		2	ambiguous	ambiguous	preferred	600.0	30.0		33.81787779997103	0.03361789998598397
1	28.581957799964584	stim	550		2	ambiguous	ambiguous	preferred	600.0	30.0		33.85149569995701	0.03291079995688051
1	28.614868599921465	stim	551		2	ambiguous	ambiguous	preferred	600.0	30.0		33.884406499913894	0.033339900081045926
1	28.64820850000251	stim	552		2	ambiguous	ambiguous	preferred	600.0	30.0		33.91774639999494	0.033250799984671175
1	28.681459299987182	stim	553		2	ambiguous	ambiguous	preferred	600.0	30.0		33.95099719997961	0.0333408999722451
1	28.714800199959427	stim	554		2	ambiguous	ambiguous	preferred	600.0	30.0		33.984338099951856	0.034170900005847216
1	28.748971099965274	stim	555		2	ambiguous	ambiguous	preferred	600.0	30.0		34.0185089999577	0.032938299933448434
1	28.781909399898723	stim	556		2	ambiguous	ambiguous	preferred	600.0	30.0		34.05144729989115	0.03461100009735674
1	28.81652039999608	stim	557		2	ambiguous	ambiguous	preferred	600.0	30.0		34.08605829998851	0.03197869996074587
1	28.848499099956825	stim	558		2	ambiguous	ambiguous	preferred	600.0	30.0		34.118036999949254	0.033287900034338236
1	28.881786999991164	stim	559		2	ambiguous	ambiguous	preferred	600.0	30.0		34.15132489998359	0.033353099948726594
1	28.91514009993989	stim	560		2	ambiguous	ambiguous	preferred	600.0	30.0		34.18467799993232	0.03357299999333918
1	28.94871309993323	stim	561		2	ambiguous	ambiguous	preferred	600.0	30.0		34.21825099992566	0.0335655000526458
1	28.982278599985875	stim	562		2	ambiguous	ambiguous	preferred	600.0	30.0		34.251816499978304	0.03434169990941882
1	29.016620299895294	stim	563		2	ambiguous	ambiguous	preferred	600.0	30.0		34.28615819988772	0.03222520009148866
1	29.048845499986783	stim	564		2	ambiguous	ambiguous	preferred	600.0	30.0		34.31838339997921	0.03348009998444468
1	29.082325599971227	stim	565		2	ambiguous	ambiguous	preferred	600.0	30.0		34.351863499963656	0.03340109996497631
1	29.115726699936204	stim	566		2	ambiguous	ambiguous	preferred	600.0	30.0		34.38526459992863	0.033440500032156706
1	29.14916719996836	stim	567		2	ambiguous	ambiguous	preferred	600.0	30.0		34.41870509996079	0.03412179998122156
1	29.183288999949582	stim	568		2	ambiguous	ambiguous	preferred	600.0	30.0		34.45282689994201	0.0325420000590384
1	29.21583100000862	stim	569		2	ambiguous	ambiguous	preferred	600.0	30.0		34.48536890000105	0.034249099902808666
1	29.25008009991143	stim	570		2	ambiguous	ambiguous	preferred	600.0	30.0		34.51961799990386	0.03235950006637722
1	29.282439599977806	stim	571		2	ambiguous	ambiguous	preferred	600.0	30.0		34.551977499970235	0.033295299974270165
1	29.315734899952076	stim	572		2	ambiguous	ambiguous	preferred	600.0	30.0		34.585272799944505	0.0333715999731794
1	29.349106499925256	stim	573		2	ambiguous	ambiguous	preferred	600.0	30.0		34.618644399917684	0.03385150001849979
1	29.382957999943756	stim	574		2	ambiguous	ambiguous	preferred	600.0	30.0		34.652495899936184	0.05003859999123961
1	29.432996599934995	stim	575		2	ambiguous	ambiguous	preferred	600.0	30.0		34.702534499927424	0.05012709996663034
1	29.483123699901626	stim	576		2	ambiguous	ambiguous	preferred	600.0	30.0		34.752661599894054	0.033101100008934736
1	29.51622479991056	stim	577		2	ambiguous	ambiguous	preferred	600.0	30.0		34.78576269990299	0.03316680004354566
1	29.549391599954106	stim	578		2	ambiguous	ambiguous	preferred	600.0	30.0		34.818929499946535	0.033582699950784445
1	29.58297429990489	stim	579		2	ambiguous	ambiguous	preferred	600.0	30.0		34.85251219989732	0.03540010005235672
1	29.618374399957247	stim	580		2	ambiguous	ambiguous	preferred	600.0	30.0		34.887912299949676	0.03116280003450811
1	29.649537199991755	stim	581		2	ambiguous	ambiguous	preferred	600.0	30.0		34.919075099984184	0.03376419993583113
1	29.683301399927586	stim	582		2	ambiguous	ambiguous	preferred	600.0	30.0		34.952839299920015	0.03278790006879717
1	29.716089299996383	stim	583		2	ambiguous	ambiguous	preferred	600.0	30.0		34.98562719998881	0.03333559993188828
1	29.74942489992827	stim	584		2	ambiguous	ambiguous	preferred	600.0	30.0		35.0189627999207	0.033875999972224236
1	29.783300899900496	stim	585		2	ambiguous	ambiguous	preferred	600.0	30.0		35.052838799892925	0.034080600016750395
1	29.817381499917246	stim	586		2	ambiguous	ambiguous	preferred	600.0	30.0		35.086919399909675	0.03273000009357929
1	29.850111500010826	stim	587		2	ambiguous	ambiguous	preferred	600.0	30.0		35.119649400003254	0.03319259989075363
1	29.88330409990158	stim	588		2	ambiguous	ambiguous	preferred	600.0	30.0		35.15284199989401	0.03332970000337809
1	29.916633799904957	stim	589		2	ambiguous	ambiguous	preferred	600.0	30.0		35.186171699897386	0.03349609998986125
1	29.95012989989482	stim	590		2	ambiguous	ambiguous	preferred	600.0	30.0		35.21966779988725	0.03332410007715225
1	29.98345399997197	stim	591		2	ambiguous	ambiguous	preferred	600.0	30.0		35.2529918999644	0.03379260003566742
1	30.01724660000764	stim	592		2	ambiguous	ambiguous	preferred	600.0	30.0		35.28678450000007	0.03309739998076111
1	30.0503439999884	stim	593		2	ambiguous	ambiguous	preferred	600.0	30.0		35.31988189998083	0.033333899918943644
1	30.083677899907343	stim	594		2	ambiguous	ambiguous	preferred	600.0	30.0		35.35321579989977	0.03341460006777197
1	30.117092499975115	stim	595		2	ambiguous	ambiguous	preferred	600.0	30.0		35.386630399967544	0.03319370001554489
1	30.15028619999066	stim	596		2	ambiguous	ambiguous	preferred	600.0	30.0		35.41982409998309	0.03333469992503524
1	30.183620899915695	stim	597		2	ambiguous	ambiguous	preferred	600.0	30.0		35.453158799908124	0.03367360006086528
1	30.21729449997656	stim	598		2	ambiguous	ambiguous	preferred	600.0	30.0		35.48683239996899	0.03328149998560548
1	30.250575999962166	stim	599		2	ambiguous	ambiguous	preferred	600.0	30.0		35.520113899954595	0.03341739997267723
0	30.283993399934843	stim	0		110	break	break	preferred	1.0	0.0		35.55353129992727	1.9211004000389948
