trial_nr	onset	event_type	phase	response	nr_frames	block_type	trial_type	response_hand	phase_length	last_frame	key_duration	onset_abs	duration
0	0.017505600000731647	stim	0		0	break	break	preferred	1.0	0.0		4.0922155999578536	2.6276284999912605
0	2.645134099991992	break	0	space	0	break	break	preferred	1.0	0.0	0.08974700001999736	6.719844099949114	0.25164340005721897
0	2.896777500049211	break	0	space	119	break	break	preferred	1.0	0.0	0.08565999998245388	6.971487500006333	-0.8204004000872374
1	2.0763770999619737	stim	0		2	unambiguous	right	preferred	69.0	0.0		6.151087099919096	0.03329080005642027
1	2.109667900018394	stim	1		2	unambiguous	right	preferred	69.0	0.0		6.184377899975516	0.033605200005695224
1	2.143273100024089	stim	2		2	unambiguous	right	preferred	69.0	0.0		6.217983099981211	0.03346309997141361
1	2.176736199995503	stim	3		2	unambiguous	right	preferred	69.0	0.0		6.251446199952625	0.03313789993990213
1	2.209874099935405	stim	4		2	unambiguous	right	preferred	69.0	0.0		6.284584099892527	0.03370110003743321
1	2.243575199972838	stim	5		2	unambiguous	right	preferred	69.0	0.0		6.31828519992996	0.033616899978369474
1	2.2771920999512076	stim	6		2	unambiguous	right	preferred	69.0	0.0		6.3519020999083295	0.03326960001140833
1	2.310461699962616	stim	7		2	unambiguous	right	preferred	69.0	0.0		6.385171699919738	0.0334222000092268
1	2.3438838999718428	stim	8		2	unambiguous	right	preferred	69.0	0.0		6.418593899928965	0.03352169995196164
1	2.3774055999238044	stim	9		2	unambiguous	right	preferred	69.0	0.0		6.452115599880926	0.033509100088849664
1	2.410914700012654	stim	10		2	unambiguous	right	preferred	69.0	0.0		6.485624699969776	0.033447699970565736
1	2.44436239998322	stim	11		2	unambiguous	right	preferred	69.0	0.0		6.519072399940342	0.033474599942564964
1	2.4778369999257848	stim	12		2	unambiguous	right	preferred	69.0	0.0		6.552546999882907	0.03327050001826137
1	2.511107499944046	stim	13		2	unambiguous	right	preferred	69.0	0.0		6.585817499901168	0.033594800042919815
1	2.544702299986966	stim	14		2	unambiguous	right	preferred	69.0	0.0		6.619412299944088	0.033362200018018484
1	2.5780645000049844	stim	15		2	unambiguous	right	preferred	69.0	0.0		6.652774499962106	0.03354169998783618
1	2.6116061999928206	stim	16		2	unambiguous	right	preferred	69.0	0.0		6.6863161999499425	0.03341249993536621
1	2.645018699928187	stim	17		2	unambiguous	right	preferred	69.0	0.0		6.719728699885309	0.033476100070402026
1	2.678494799998589	stim	18		2	unambiguous	right	preferred	69.0	0.0		6.753204799955711	0.035274700028821826
1	2.7137695000274107	stim	19		2	unambiguous	right	preferred	69.0	0.0		6.788479499984533	0.033392699901014566
1	2.7471621999284253	stim	20		2	unambiguous	right	preferred	69.0	0.0		6.821872199885547	0.033522000070661306
1	2.7806841999990866	stim	21		2	unambiguous	right	preferred	69.0	0.0		6.8553941999562085	0.03363989992067218
1	2.8143240999197587	stim	22		2	unambiguous	right	preferred	69.0	0.0		6.889034099876881	0.033020100090652704
1	2.8473442000104114	stim	23		2	unambiguous	right	preferred	69.0	0.0		6.922054199967533	0.033397399936802685
1	2.880741599947214	stim	24		2	unambiguous	right	preferred	69.0	0.0		6.955451599904336	0.0332937000785023
1	2.9140353000257164	stim	25		2	unambiguous	right	preferred	69.0	0.0		6.988745299982838	0.03342899994459003
1	2.9474642999703065	stim	26		2	unambiguous	right	preferred	69.0	0.0		7.022174299927428	0.033271500025875866
1	2.9807357999961823	stim	27		2	unambiguous	right	preferred	69.0	0.0		7.055445799953304	0.033339599962346256
1	3.0140753999585286	stim	28		2	unambiguous	right	preferred	69.0	0.0		7.0887853999156505	0.03327660006470978
1	3.0473520000232384	stim	29		2	unambiguous	right	preferred	69.0	0.0		7.12206199998036	0.033303899923339486
1	3.080655899946578	stim	30		2	unambiguous	right	preferred	69.0	0.0		7.1553658999037	0.03334510000422597
1	3.114000999950804	stim	31		2	unambiguous	right	preferred	69.0	0.0		7.188710999907926	0.03342850005719811
1	3.147429500008002	stim	32		2	unambiguous	right	preferred	69.0	0.0		7.222139499965124	0.03350499994121492
1	3.180934499949217	stim	33		2	unambiguous	right	preferred	69.0	0.0		7.255644499906339	0.03321490006055683
1	3.2141494000097737	stim	34		2	unambiguous	right	preferred	69.0	0.0		7.288859399966896	0.03335329995024949
1	3.247502699960023	stim	35		2	unambiguous	right	preferred	69.0	0.0		7.322212699917145	0.033310199971310794
1	3.280812899931334	stim	36		2	unambiguous	right	preferred	69.0	0.0		7.355522899888456	0.03361879999283701
1	3.314431699924171	stim	37		2	unambiguous	right	preferred	69.0	0.0		7.389141699881293	0.033633600105531514
1	3.3480653000297025	stim	38		2	unambiguous	right	preferred	69.0	0.0		7.422775299986824	0.033477399963885546
1	3.381542699993588	stim	39		2	unambiguous	right	preferred	69.0	0.0		7.45625269995071	0.03343249997124076
1	3.414975199964829	stim	40		2	unambiguous	right	preferred	69.0	0.0		7.489685199921951	0.03324590006377548
1	3.4482211000286043	stim	41		2	unambiguous	right	preferred	69.0	0.0		7.522931099985726	0.0333012999035418
1	3.481522399932146	stim	42		2	unambiguous	right	preferred	69.0	0.0		7.556232399889268	0.03336850006598979
1	3.514890899998136	stim	43		2	unambiguous	right	preferred	69.0	0.0		7.589600899955258	0.03333939996082336
1	3.548230299958959	stim	44		2	unambiguous	right	preferred	69.0	0.0		7.622940299916081	0.03362050000578165
1	3.581850799964741	stim	45		2	unambiguous	right	preferred	69.0	0.0		7.656560799921863	0.04973900003824383
1	3.6315898000029847	stim	46		2	unambiguous	right	preferred	69.0	0.0		7.706299799960107	0.03336310002487153
1	3.6649529000278562	stim	47		2	unambiguous	right	preferred	69.0	0.0		7.739662899984978	0.03338369994889945
1	3.6983365999767557	stim	48		2	unambiguous	right	preferred	69.0	0.0		7.773046599933878	0.033972500008530915
1	3.7323090999852866	stim	49		2	unambiguous	right	preferred	69.0	0.0		7.8070190999424085	0.03330969996750355
1	3.76561879995279	stim	50		2	unambiguous	right	preferred	69.0	0.0		7.840328799909912	0.03341510007157922
1	3.7990339000243694	stim	51		2	unambiguous	right	preferred	69.0	0.0		7.873743899981491	0.03360139997676015
1	3.8326353000011295	stim	52		2	unambiguous	right	preferred	69.0	0.0		7.907345299958251	0.03329179994761944
1	3.865927099948749	stim	53		2	unambiguous	right	preferred	69.0	0.0		7.940637099905871	0.03422480006702244
1	3.9001519000157714	stim	54		2	unambiguous	right	preferred	69.0	0.0		7.974861899972893	0.03374979994259775
1	3.933901699958369	stim	55		2	unambiguous	right	preferred	69.0	0.0		8.008611699915491	0.03415099997073412
1	3.9680526999291033	stim	56		2	unambiguous	right	preferred	69.0	0.0		8.042762699886225	0.033498300006613135
1	4.001550999935716	stim	57		2	unambiguous	right	preferred	69.0	0.0		8.076260999892838	0.0336830000160262
1	4.035233999951743	stim	58		2	unambiguous	right	preferred	69.0	0.0		8.109943999908864	0.03332859999500215
1	4.068562599946745	stim	59		2	unambiguous	right	preferred	69.0	0.0		8.143272599903867	0.03330780006945133
1	4.101870400016196	stim	60		2	unambiguous	right	preferred	69.0	0.0		8.176580399973318	0.03366670000832528
1	4.135537100024521	stim	61		2	unambiguous	right	preferred	69.0	0.0		8.210247099981643	0.033385699964128435
1	4.16892279998865	stim	62		2	unambiguous	right	preferred	69.0	0.0		8.243632799945772	0.03338469995651394
1	4.202307499945164	stim	63		2	unambiguous	right	preferred	69.0	0.0		8.277017499902286	0.03325169999152422
1	4.235559199936688	stim	64		2	unambiguous	right	preferred	69.0	0.0		8.31026919989381	0.03331349999643862
1	4.268872699933127	stim	65		2	unambiguous	right	preferred	69.0	0.0		8.343582699890248	0.033381300047039986
1	4.3022539999801666	stim	66		2	unambiguous	right	preferred	69.0	0.0		8.376963999937288	0.033806700026616454
1	4.336060700006783	stim	67		2	unambiguous	right	preferred	69.0	0.0		8.410770699963905	0.03336749994195998
1	4.369428199948743	stim	68		2	unambiguous	right	preferred	69.0	0.0		8.444138199905865	0.033978300052694976
2	4.403406500001438	stim	0		2	unambiguous	left	preferred	69.0	69.0		8.47811649995856	0.03348659991752356
2	4.4368930999189615	stim	1		2	unambiguous	left	preferred	69.0	69.0		8.511603099876083	0.03330330003518611
2	4.470196399954148	stim	2		2	unambiguous	left	preferred	69.0	69.0		8.54490639991127	0.033527899999171495
2	4.503724299953319	stim	3		2	unambiguous	left	preferred	69.0	69.0		8.578434299910441	0.033378300024196506
2	4.537102599977516	stim	4		2	unambiguous	left	preferred	69.0	69.0		8.611812599934638	0.03373370005283505
2	4.570836300030351	stim	5		2	unambiguous	left	preferred	69.0	69.0		8.645546299987473	0.03356259991414845
2	4.604398899944499	stim	6		2	unambiguous	left	preferred	69.0	69.0		8.679108899901621	0.033840500051155686
2	4.638239399995655	stim	7		2	unambiguous	left	preferred	69.0	69.0		8.712949399952777	0.032701099989935756
2	4.670940499985591	stim	8		2	unambiguous	left	preferred	69.0	69.0		8.745650499942712	0.0333482000278309
2	4.7042887000134215	stim	9		2	unambiguous	left	preferred	69.0	69.0		8.778998699970543	0.033296899986453354
2	4.737585599999875	stim	10		2	unambiguous	left	preferred	69.0	69.0		8.812295599956997	0.03337880002800375
2	4.770964400027879	stim	11		2	unambiguous	left	preferred	69.0	69.0		8.845674399985	0.03365129989106208
2	4.804615699918941	stim	12		2	unambiguous	left	preferred	69.0	69.0		8.879325699876063	0.033881900017149746
2	4.83849759993609	stim	13		2	unambiguous	left	preferred	69.0	69.0		8.913207599893212	0.034057200071401894
2	4.872554800007492	stim	14		2	unambiguous	left	preferred	69.0	69.0		8.947264799964614	0.033676199964247644
2	4.90623099997174	stim	15		2	unambiguous	left	preferred	69.0	69.0		8.980940999928862	0.03330400004051626
2	4.939535000012256	stim	16		2	unambiguous	left	preferred	69.0	69.0		9.014244999969378	0.034222599933855236
2	4.973757599946111	stim	17		2	unambiguous	left	preferred	69.0	69.0		9.048467599903233	0.033582800067961216
2	5.007340400014073	stim	18		2	unambiguous	left	preferred	69.0	69.0		9.082050399971195	0.03359809995163232
2	5.040938499965705	stim	19		2	unambiguous	left	preferred	69.0	69.0		9.115648499922827	0.033462699968367815
2	5.074401199934073	stim	20		2	unambiguous	left	preferred	69.0	69.0		9.149111199891195	0.033337100059725344
2	5.107738299993798	stim	21		2	unambiguous	left	preferred	69.0	69.0		9.18244829995092	0.033342899987474084
2	5.141081199981272	stim	22		2	unambiguous	left	preferred	69.0	69.0		9.215791199938394	0.03335990000050515
2	5.174441099981777	stim	23		2	unambiguous	left	preferred	69.0	69.0		9.2491510999389	0.03367939998861402
2	5.208120499970391	stim	24		2	unambiguous	left	preferred	69.0	69.0		9.282830499927513	0.033422900014556944
2	5.241543399984948	stim	25		2	unambiguous	left	preferred	69.0	69.0		9.31625339994207	0.03341769997496158
2	5.27496109995991	stim	26		2	unambiguous	left	preferred	69.0	69.0		9.349671099917032	0.03349439997691661
2	5.3084554999368265	stim	27		2	unambiguous	left	preferred	69.0	69.0		9.383165499893948	0.03330500004813075
2	5.341760499984957	stim	28		2	unambiguous	left	preferred	69.0	69.0		9.41647049994208	0.033443299937061965
2	5.375203799922019	stim	29		2	unambiguous	left	preferred	69.0	69.0		9.449913799879141	0.03370800008997321
2	5.4089118000119925	stim	30		2	unambiguous	left	preferred	69.0	69.0		9.483621799969114	0.03315079992171377
2	5.442062599933706	stim	31		2	unambiguous	left	preferred	69.0	69.0		9.516772599890828	0.03354770003352314
2	5.475610299967229	stim	32		2	unambiguous	left	preferred	69.0	69.0		9.550320299924351	0.03348009998444468
2	5.509090399951674	stim	33		2	unambiguous	left	preferred	69.0	69.0		9.583800399908796	0.03341310005635023
2	5.542503500008024	stim	34		2	unambiguous	left	preferred	69.0	69.0		9.617213499965146	0.033416599966585636
2	5.57592009997461	stim	35		2	unambiguous	left	preferred	69.0	69.0		9.650630099931732	0.03360690001863986
2	5.60952699999325	stim	36		2	unambiguous	left	preferred	69.0	69.0		9.684236999950372	0.033196300035342574
2	5.642723300028592	stim	37		2	unambiguous	left	preferred	69.0	69.0		9.717433299985714	0.033627199940383434
2	5.676350499968976	stim	38		2	unambiguous	left	preferred	69.0	69.0		9.751060499926098	0.0337067999644205
2	5.710057299933396	stim	39		2	unambiguous	left	preferred	69.0	69.0		9.784767299890518	0.03340620000381023
2	5.7434634999372065	stim	40		2	unambiguous	left	preferred	69.0	69.0		9.818173499894328	0.03329210006631911
2	5.776755600003526	stim	41		2	unambiguous	left	preferred	69.0	69.0		9.851465599960648	0.033400499960407615
2	5.810156099963933	stim	42		2	unambiguous	left	preferred	69.0	69.0		9.884866099921055	0.033397800056263804
2	5.843553900020197	stim	43		2	unambiguous	left	preferred	69.0	69.0		9.918263899977319	0.03353249991778284
2	5.87708639993798	stim	44		2	unambiguous	left	preferred	69.0	69.0		9.951796399895102	0.0336714000441134
2	5.910757799982093	stim	45		2	unambiguous	left	preferred	69.0	69.0		9.985467799939215	0.03350200003478676
2	5.94425980001688	stim	46		2	unambiguous	left	preferred	69.0	69.0		10.018969799974002	0.033360500005073845
2	5.977620300021954	stim	47		2	unambiguous	left	preferred	69.0	69.0		10.052330299979076	0.033561799908056855
2	6.011182099930011	stim	48		2	unambiguous	left	preferred	69.0	69.0		10.085892099887133	0.033354900078848004
2	6.044537000008859	stim	49		2	unambiguous	left	preferred	69.0	69.0		10.11924699996598	0.0334957999875769
2	6.078032799996436	stim	50		2	unambiguous	left	preferred	69.0	69.0		10.152742799953558	0.03341099992394447
2	6.11144379992038	stim	51		2	unambiguous	left	preferred	69.0	69.0		10.186153799877502	0.03340710001066327
2	6.144850899931043	stim	52		2	unambiguous	left	preferred	69.0	69.0		10.219560899888165	0.035494400071911514
2	6.180345300002955	stim	53		2	unambiguous	left	preferred	69.0	69.0		10.255055299960077	0.031925000017508864
2	6.212270300020464	stim	54		2	unambiguous	left	preferred	69.0	69.0		10.286980299977586	0.035002899938263
2	6.247273199958727	stim	55		2	unambiguous	left	preferred	69.0	69.0		10.321983199915849	0.03340019995812327
2	6.28067339991685	stim	56		2	unambiguous	left	preferred	69.0	69.0		10.355383399873972	0.03336010000202805
2	6.314033499918878	stim	57		2	unambiguous	left	preferred	69.0	69.0		10.388743499876	0.03326789999846369
2	6.347301399917342	stim	58		2	unambiguous	left	preferred	69.0	69.0		10.422011399874464	0.03363100008573383
2	6.380932400003076	stim	59		2	unambiguous	left	preferred	69.0	69.0		10.455642399960198	0.0330796999623999
2	6.4140120999654755	stim	60		2	unambiguous	left	preferred	69.0	69.0		10.488722099922597	0.033284900011494756
2	6.44729699997697	stim	61		2	unambiguous	left	preferred	69.0	69.0		10.522006999934092	0.03328410000540316
2	6.480581099982373	stim	62		2	unambiguous	left	preferred	69.0	69.0		10.555291099939495	0.03334369999356568
2	6.513924799975939	stim	63		2	unambiguous	left	preferred	69.0	69.0		10.588634799933061	0.03332669998053461
2	6.547251499956474	stim	64		2	unambiguous	left	preferred	69.0	69.0		10.621961499913596	0.033468600013293326
2	6.580720099969767	stim	65		2	unambiguous	left	preferred	69.0	69.0		10.655430099926889	0.033409400028176606
2	6.614129499997944	stim	66		2	unambiguous	left	preferred	69.0	69.0		10.688839499955066	0.03341439994983375
2	6.647543899947777	stim	67		2	unambiguous	left	preferred	69.0	69.0		10.7222538999049	0.03305059997364879
2	6.680594499921426	stim	68		2	unambiguous	left	preferred	69.0	69.0		10.755304499878548	0.03334950003772974
3	6.713943999959156	stim	0		2	unambiguous	right	preferred	69.0	138.0		10.788653999916278	0.03330560005269945
3	6.747249600011855	stim	1		2	unambiguous	right	preferred	69.0	138.0		10.821959599968977	0.03331490000709891
3	6.780564500018954	stim	2		2	unambiguous	right	preferred	69.0	138.0		10.855274499976076	0.033665700000710785
3	6.814230200019665	stim	3		2	unambiguous	right	preferred	69.0	138.0		10.888940199976787	0.03315219993237406
3	6.847382399952039	stim	4		2	unambiguous	right	preferred	69.0	138.0		10.922092399909161	0.03324460005387664
3	6.880627000005916	stim	5		2	unambiguous	right	preferred	69.0	138.0		10.955336999963038	0.03361899999435991
3	6.914246000000276	stim	6		2	unambiguous	right	preferred	69.0	138.0		10.988955999957398	0.03303179994691163
3	6.947277799947187	stim	7		2	unambiguous	right	preferred	69.0	138.0		11.02198779990431	0.03368740004952997
3	6.980965199996717	stim	8		2	unambiguous	right	preferred	69.0	138.0		11.05567519995384	0.033737099962309
3	7.014702299959026	stim	9		2	unambiguous	right	preferred	69.0	138.0		11.089412299916148	0.03325179999228567
3	7.047954099951312	stim	10		2	unambiguous	right	preferred	69.0	138.0		11.122664099908434	0.03330790007021278
3	7.081262000021525	stim	11		2	unambiguous	right	preferred	69.0	138.0		11.155971999978647	0.03333119989838451
3	7.114593199919909	stim	12		2	unambiguous	right	preferred	69.0	138.0		11.189303199877031	0.03382090001832694
3	7.148414099938236	stim	13		2	unambiguous	right	preferred	69.0	138.0		11.223124099895358	0.03324170003179461
3	7.181655799970031	stim	14		2	unambiguous	right	preferred	69.0	138.0		11.256365799927153	0.03378599998541176
3	7.2154417999554425	stim	15		2	unambiguous	right	preferred	69.0	138.0		11.290151799912564	0.03330830007325858
3	7.248750100028701	stim	16		2	unambiguous	right	preferred	69.0	138.0		11.323460099985823	0.033134999917820096
3	7.281885099946521	stim	17		2	unambiguous	right	preferred	69.0	138.0		11.356595099903643	0.03332260006573051
3	7.315207700012252	stim	18		2	unambiguous	right	preferred	69.0	138.0		11.389917699969374	0.03359679994173348
3	7.348804499953985	stim	19		2	unambiguous	right	preferred	69.0	138.0		11.423514499911107	0.03331209998577833
3	7.3821165999397635	stim	20		2	unambiguous	right	preferred	69.0	138.0		11.456826599896885	0.03354079998098314
3	7.415657399920747	stim	21		2	unambiguous	right	preferred	69.0	138.0		11.490367399877869	0.03367450006771833
3	7.449331899988465	stim	22		2	unambiguous	right	preferred	69.0	138.0		11.524041899945587	0.03310609993059188
3	7.482437999919057	stim	23		2	unambiguous	right	preferred	69.0	138.0		11.557147999876179	0.033323700074106455
3	7.515761699993163	stim	24		2	unambiguous	right	preferred	69.0	138.0		11.590471699950285	0.033329600002616644
3	7.54909129999578	stim	25		2	unambiguous	right	preferred	69.0	138.0		11.623801299952902	0.03336230001877993
3	7.58245360001456	stim	26		2	unambiguous	right	preferred	69.0	138.0		11.657163599971682	0.033327999990433455
3	7.615781600004993	stim	27		2	unambiguous	right	preferred	69.0	138.0		11.690491599962115	0.03344279993325472
3	7.649224399938248	stim	28		2	unambiguous	right	preferred	69.0	138.0		11.72393439989537	0.03323230007663369
3	7.682456700014882	stim	29		2	unambiguous	right	preferred	69.0	138.0		11.757166699972004	0.033354299957863986
3	7.715810999972746	stim	30		2	unambiguous	right	preferred	69.0	138.0		11.790520999929868	0.03410779999103397
3	7.74991879996378	stim	31		2	unambiguous	right	preferred	69.0	138.0		11.824628799920902	0.03318310005124658
3	7.783101900015026	stim	32		2	unambiguous	right	preferred	69.0	138.0		11.857811899972148	0.033120399923063815
3	7.81622229993809	stim	33		2	unambiguous	right	preferred	69.0	138.0		11.890932299895212	0.03333670005667955
3	7.84955899999477	stim	34		2	unambiguous	right	preferred	69.0	138.0		11.924268999951892	0.03320990002248436
3	7.882768900017254	stim	35		2	unambiguous	right	preferred	69.0	138.0		11.957478899974376	0.03363269998226315
3	7.916401599999517	stim	36		2	unambiguous	right	preferred	69.0	138.0		11.991111599956639	0.03305349999573082
3	7.949455099995248	stim	37		2	unambiguous	right	preferred	69.0	138.0		12.02416509995237	0.03379210003186017
3	7.983247200027108	stim	38		2	unambiguous	right	preferred	69.0	138.0		12.05795719998423	0.033315899898298085
3	8.016563099925406	stim	39		2	unambiguous	right	preferred	69.0	138.0		12.091273099882528	0.033427300048060715
3	8.049990399973467	stim	40		2	unambiguous	right	preferred	69.0	138.0		12.124700399930589	0.033268800005316734
3	8.083259199978784	stim	41		2	unambiguous	right	preferred	69.0	138.0		12.157969199935906	0.03429169999435544
3	8.11755089997314	stim	42		2	unambiguous	right	preferred	69.0	138.0		12.192260899930261	0.033436099998652935
3	8.150986999971792	stim	43		2	unambiguous	right	preferred	69.0	138.0		12.225696999928914	0.03335549996700138
3	8.184342499938793	stim	44		2	unambiguous	right	preferred	69.0	138.0		12.259052499895915	0.03318410005886108
3	8.217526599997655	stim	45		2	unambiguous	right	preferred	69.0	138.0		12.292236599954776	0.03352159995120019
3	8.251048199948855	stim	46		2	unambiguous	right	preferred	69.0	138.0		12.325758199905977	0.033668700023554265
3	8.284716899972409	stim	47		2	unambiguous	right	preferred	69.0	138.0		12.359426899929531	0.049655299982987344
3	8.334372199955396	stim	48		2	unambiguous	right	preferred	69.0	138.0		12.409082199912518	0.03358479996677488
3	8.367956999922171	stim	49		2	unambiguous	right	preferred	69.0	138.0		12.442666999879293	0.033122300053946674
3	8.401079299976118	stim	50		2	unambiguous	right	preferred	69.0	138.0		12.47578929993324	0.033350200043059886
3	8.434429500019178	stim	51		2	unambiguous	right	preferred	69.0	138.0		12.5091394999763	0.03380809992086142
3	8.46823759994004	stim	52		2	unambiguous	right	preferred	69.0	138.0		12.542947599897161	0.03325129998847842
3	8.501488899928518	stim	53		2	unambiguous	right	preferred	69.0	138.0		12.57619889988564	0.03347750008106232
3	8.53496640000958	stim	54		2	unambiguous	right	preferred	69.0	138.0		12.609676399966702	0.033381299930624664
3	8.568347699940205	stim	55		2	unambiguous	right	preferred	69.0	138.0		12.643057699897327	0.033335500047542155
3	8.601683199987747	stim	56		2	unambiguous	right	preferred	69.0	138.0		12.676393199944869	0.03355179994832724
3	8.635234999936074	stim	57		2	unambiguous	right	preferred	69.0	138.0		12.709944999893196	0.03328910004347563
3	8.66852409997955	stim	58		2	unambiguous	right	preferred	69.0	138.0		12.743234099936672	0.03384020004887134
3	8.702364300028421	stim	59		2	unambiguous	right	preferred	69.0	138.0		12.777074299985543	0.03333699994254857
3	8.73570129997097	stim	60		2	unambiguous	right	preferred	69.0	138.0		12.810411299928091	0.0331996000604704
3	8.76890090003144	stim	61		2	unambiguous	right	preferred	69.0	138.0		12.843610899988562	0.03368359990417957
3	8.80258449993562	stim	62		2	unambiguous	right	preferred	69.0	138.0		12.877294499892741	0.03329180006403476
3	8.835876299999654	stim	63		2	unambiguous	right	preferred	69.0	138.0		12.910586299956776	0.03349179995711893
3	8.869368099956773	stim	64		2	unambiguous	right	preferred	69.0	138.0		12.944078099913895	0.03345580003224313
3	8.902823899989016	stim	65		2	unambiguous	right	preferred	69.0	138.0		12.977533899946138	0.0331296999938786
3	8.935953599982895	stim	66		2	unambiguous	right	preferred	69.0	138.0		13.010663599940017	0.033046099939383566
3	8.968999699922279	stim	67		2	unambiguous	right	preferred	69.0	138.0		13.0437096998794	0.03372860001400113
3	9.00272829993628	stim	68		2	unambiguous	right	preferred	69.0	138.0		13.077438299893402	0.033256700029596686
4	9.035984999965876	stim	0		2	unambiguous	left	preferred	71.0	17.0		13.110694999922998	0.03352169995196164
4	9.069506699917838	stim	1		2	unambiguous	left	preferred	71.0	17.0		13.14421669987496	0.033615600084885955
4	9.103122300002724	stim	2		2	unambiguous	left	preferred	71.0	17.0		13.177832299959846	0.03306439996231347
4	9.136186699965037	stim	3		2	unambiguous	left	preferred	71.0	17.0		13.21089669992216	0.03356020001228899
4	9.169746899977326	stim	4		2	unambiguous	left	preferred	71.0	17.0		13.244456899934448	0.03333060001023114
4	9.203077499987558	stim	5		2	unambiguous	left	preferred	71.0	17.0		13.27778749994468	0.03333859995473176
4	9.23641609994229	stim	6		2	unambiguous	left	preferred	71.0	17.0		13.311126099899411	0.0333555000834167
4	9.269771600025706	stim	7		2	unambiguous	left	preferred	71.0	17.0		13.344481599982828	0.03381319995969534
4	9.303584799985401	stim	8		2	unambiguous	left	preferred	71.0	17.0		13.378294799942523	0.03351580002345145
4	9.337100600008853	stim	9		2	unambiguous	left	preferred	71.0	17.0		13.411810599965975	0.03344819997437298
4	9.370548799983226	stim	10		2	unambiguous	left	preferred	71.0	17.0		13.445258799940348	0.03355039993766695
4	9.404099199920893	stim	11		2	unambiguous	left	preferred	71.0	17.0		13.478809199878015	0.03355700010433793
4	9.43765620002523	stim	12		2	unambiguous	left	preferred	71.0	17.0		13.512366199982353	0.03344399994239211
4	9.471100199967623	stim	13		2	unambiguous	left	preferred	71.0	17.0		13.545810199924745	0.03365140000823885
4	9.504751599975862	stim	14		2	unambiguous	left	preferred	71.0	17.0		13.579461599932984	0.03349940001498908
4	9.53825099999085	stim	15		2	unambiguous	left	preferred	71.0	17.0		13.612960999947973	0.03305510000791401
4	9.571306099998765	stim	16		2	unambiguous	left	preferred	71.0	17.0		13.646016099955887	0.03351700003258884
4	9.604823100031354	stim	17		2	unambiguous	left	preferred	71.0	17.0		13.679533099988475	0.03378339996561408
4	9.638606499996968	stim	18		2	unambiguous	left	preferred	71.0	17.0		13.71331649995409	0.033129399991594255
4	9.671735899988562	stim	19		2	unambiguous	left	preferred	71.0	17.0		13.746445899945684	0.03344180004205555
4	9.705177700030617	stim	20		2	unambiguous	left	preferred	71.0	17.0		13.77988769998774	0.03329269995447248
4	9.73847039998509	stim	21		2	unambiguous	left	preferred	71.0	17.0		13.813180399942212	0.03349930001422763
4	9.771969699999318	stim	22		2	unambiguous	left	preferred	71.0	17.0		13.84667969995644	0.03334399999585003
4	9.805313699995168	stim	23		2	unambiguous	left	preferred	71.0	17.0		13.88002369995229	0.03325750003568828
4	9.838571200030856	stim	24		2	unambiguous	left	preferred	71.0	17.0		13.913281199987978	0.03328889992553741
4	9.871860099956393	stim	25		2	unambiguous	left	preferred	71.0	17.0		13.946570099913515	0.03357269999105483
4	9.905432799947448	stim	26		2	unambiguous	left	preferred	71.0	17.0		13.98014279990457	0.033414200064726174
4	9.938847000012174	stim	27		2	unambiguous	left	preferred	71.0	17.0		14.013556999969296	0.03353759995661676
4	9.972384599968791	stim	28		2	unambiguous	left	preferred	71.0	17.0		14.047094599925913	0.03341889998409897
4	10.00580349995289	stim	29		2	unambiguous	left	preferred	71.0	17.0		14.080513499910012	0.03325350000523031
4	10.03905699995812	stim	30		2	unambiguous	left	preferred	71.0	17.0		14.113766999915242	0.03332260006573051
4	10.07237960002385	stim	31		2	unambiguous	left	preferred	71.0	17.0		14.147089599980973	0.0330371999880299
4	10.10541680001188	stim	32		2	unambiguous	left	preferred	71.0	17.0		14.180126799969003	0.03382100001908839
4	10.139237800030969	stim	33		2	unambiguous	left	preferred	71.0	17.0		14.213947799988091	0.0333012999035418
4	10.17253909993451	stim	34		2	unambiguous	left	preferred	71.0	17.0		14.247249099891633	0.03374700003769249
4	10.206286099972203	stim	35		2	unambiguous	left	preferred	71.0	17.0		14.280996099929325	0.033985599991865456
4	10.240271699964069	stim	36		2	unambiguous	left	preferred	71.0	17.0		14.31498169992119	0.033886700053699315
4	10.274158400017768	stim	37		2	unambiguous	left	preferred	71.0	17.0		14.34886839997489	0.03333169990219176
4	10.30749009991996	stim	38		2	unambiguous	left	preferred	71.0	17.0		14.382200099877082	0.03351350000593811
4	10.341003599925898	stim	39		2	unambiguous	left	preferred	71.0	17.0		14.41571359988302	0.03352910000830889
4	10.374532699934207	stim	40		2	unambiguous	left	preferred	71.0	17.0		14.449242699891329	0.05014220008160919
4	10.424674900015816	stim	41		2	unambiguous	left	preferred	71.0	17.0		14.499384899972938	0.033302699914202094
4	10.457977599930018	stim	42		2	unambiguous	left	preferred	71.0	17.0		14.53268759988714	0.03340320009738207
4	10.4913808000274	stim	43		2	unambiguous	left	preferred	71.0	17.0		14.566090799984522	0.03349279996473342
4	10.524873599992134	stim	44		2	unambiguous	left	preferred	71.0	17.0		14.599583599949256	0.03340449999086559
4	10.558278099983	stim	45		2	unambiguous	left	preferred	71.0	17.0		14.632988099940121	0.03343810001388192
4	10.591716199996881	stim	46		2	unambiguous	left	preferred	71.0	17.0		14.666426199954003	0.03339260001666844
4	10.62510880001355	stim	47		2	unambiguous	left	preferred	71.0	17.0		14.699818799970672	0.03350629995111376
4	10.658615099964663	stim	48		2	unambiguous	left	preferred	71.0	17.0		14.733325099921785	0.03363399999216199
4	10.692249099956825	stim	49		2	unambiguous	left	preferred	71.0	17.0		14.766959099913947	0.03339710005093366
4	10.725646200007759	stim	50		2	unambiguous	left	preferred	71.0	17.0		14.800356199964881	0.03319099999498576
4	10.758837200002745	stim	51		2	unambiguous	left	preferred	71.0	17.0		14.833547199959867	0.03308770002331585
4	10.79192490002606	stim	52		2	unambiguous	left	preferred	71.0	17.0		14.866634899983183	0.033681799890473485
4	10.825606699916534	stim	53		2	unambiguous	left	preferred	71.0	17.0		14.900316699873656	0.03367210004944354
4	10.859278799965978	stim	54		2	unambiguous	left	preferred	71.0	17.0		14.9339887999231	0.03330050001386553
4	10.892579299979843	stim	55		2	unambiguous	left	preferred	71.0	17.0		14.967289299936965	0.03340610000304878
4	10.925985399982892	stim	56		2	unambiguous	left	preferred	71.0	17.0		15.000695399940014	0.03381199995055795
4	10.95979739993345	stim	57		2	unambiguous	left	preferred	71.0	17.0		15.034507399890572	0.03325740003492683
4	10.993054799968377	stim	58		2	unambiguous	left	preferred	71.0	17.0		15.067764799925499	0.03341919998638332
4	11.02647399995476	stim	59		2	unambiguous	left	preferred	71.0	17.0		15.101183999911882	0.033522400073707104
4	11.059996400028467	stim	60		2	unambiguous	left	preferred	71.0	17.0		15.134706399985589	0.03338289994280785
4	11.093379299971275	stim	61		2	unambiguous	left	preferred	71.0	17.0		15.168089299928397	0.03333769994787872
4	11.126716999919154	stim	62		2	unambiguous	left	preferred	71.0	17.0		15.201426999876276	0.033538700081408024
4	11.160255700000562	stim	63		2	unambiguous	left	preferred	71.0	17.0		15.234965699957684	0.033151299925521016
4	11.193406999926083	stim	64		2	unambiguous	left	preferred	71.0	17.0		15.268116999883205	0.03334190009627491
4	11.226748900022358	stim	65		2	unambiguous	left	preferred	71.0	17.0		15.30145889997948	0.03331400000024587
4	11.260062900022604	stim	66		2	unambiguous	left	preferred	71.0	17.0		15.334772899979725	0.033590300008654594
4	11.293653200031258	stim	67		2	unambiguous	left	preferred	71.0	17.0		15.36836319998838	0.033300899900496006
4	11.326954099931754	stim	68		2	unambiguous	left	preferred	71.0	17.0		15.401664099888876	0.03337489999830723
4	11.360328999930061	stim	69		2	unambiguous	left	preferred	71.0	17.0		15.435038999887183	0.03380299999844283
4	11.394131999928504	stim	70		2	unambiguous	left	preferred	71.0	17.0		15.468841999885626	0.033033300074748695
5	11.427165300003253	stim	0		2	unambiguous	right	preferred	66.0	88.0		15.501875299960375	0.033553099958226085
5	11.460718399961479	stim	1		2	unambiguous	right	preferred	66.0	88.0		15.535428399918601	0.033517700037918985
5	11.494236099999398	stim	2		2	unambiguous	right	preferred	66.0	88.0		15.56894609995652	0.033406600006856024
5	11.527642700006254	stim	3		2	unambiguous	right	preferred	66.0	88.0		15.602352699963376	0.034121999982744455
5	11.561764699988998	stim	4		2	unambiguous	right	preferred	66.0	88.0		15.63647469994612	0.033348800032399595
5	11.595113500021398	stim	5		2	unambiguous	right	preferred	66.0	88.0		15.66982349997852	0.033209399902261794
5	11.62832289992366	stim	6		2	unambiguous	right	preferred	66.0	88.0		15.703032899880782	0.033179900026880205
5	11.66150279995054	stim	7		2	unambiguous	right	preferred	66.0	88.0		15.736212799907662	0.033383000059984624
5	11.694885800010525	stim	8		2	unambiguous	right	preferred	66.0	88.0		15.769595799967647	0.03342049999628216
5	11.728306300006807	stim	9		2	unambiguous	right	preferred	66.0	88.0		15.803016299963929	0.03345789993181825
5	11.761764199938625	stim	10		2	unambiguous	right	preferred	66.0	88.0		15.836474199895747	0.033409300027415156
5	11.79517349996604	stim	11		2	unambiguous	right	preferred	66.0	88.0		15.869883499923162	0.03522540000267327
5	11.830398899968714	stim	12		2	unambiguous	right	preferred	66.0	88.0		15.905108899925835	0.03343239997047931
5	11.863831299939193	stim	13		2	unambiguous	right	preferred	66.0	88.0		15.938541299896315	0.033325300086289644
5	11.897156600025482	stim	14		2	unambiguous	right	preferred	66.0	88.0		15.971866599982604	0.03334919991903007
5	11.930505799944513	stim	15		2	unambiguous	right	preferred	66.0	88.0		16.005215799901634	0.033489500056020916
5	11.963995300000533	stim	16		2	unambiguous	right	preferred	66.0	88.0		16.038705299957655	0.03340139996726066
5	11.997396699967794	stim	17		2	unambiguous	right	preferred	66.0	88.0		16.072106699924916	0.03381769999396056
5	12.031214399961755	stim	18		2	unambiguous	right	preferred	66.0	88.0		16.105924399918877	0.032600600039586425
5	12.063815000001341	stim	19		2	unambiguous	right	preferred	66.0	88.0		16.138524999958463	0.033404899993911386
5	12.097219899995252	stim	20		2	unambiguous	right	preferred	66.0	88.0		16.171929899952374	0.03328700002748519
5	12.130506900022738	stim	21		2	unambiguous	right	preferred	66.0	88.0		16.20521689997986	0.03355249995365739
5	12.164059399976395	stim	22		2	unambiguous	right	preferred	66.0	88.0		16.238769399933517	0.033237600000575185
5	12.19729699997697	stim	23		2	unambiguous	right	preferred	66.0	88.0		16.272006999934092	0.03342800005339086
5	12.230725000030361	stim	24		2	unambiguous	right	preferred	66.0	88.0		16.305434999987483	0.03309869999065995
5	12.263823700021021	stim	25		2	unambiguous	right	preferred	66.0	88.0		16.338533699978143	0.03338049992453307
5	12.297204199945554	stim	26		2	unambiguous	right	preferred	66.0	88.0		16.371914199902676	0.03395269997417927
5	12.331156899919733	stim	27		2	unambiguous	right	preferred	66.0	88.0		16.405866899876855	0.033343000104650855
5	12.364499900024384	stim	28		2	unambiguous	right	preferred	66.0	88.0		16.439209899981506	0.03351529990322888
5	12.398015199927613	stim	29		2	unambiguous	right	preferred	66.0	88.0		16.472725199884735	0.0331380000570789
5	12.431153199984692	stim	30		2	unambiguous	right	preferred	66.0	88.0		16.505863199941814	0.03338749997783452
5	12.464540699962527	stim	31		2	unambiguous	right	preferred	66.0	88.0		16.53925069991965	0.03330400004051626
5	12.497844700003043	stim	32		2	unambiguous	right	preferred	66.0	88.0		16.572554699960165	0.03331819991581142
5	12.531162899918854	stim	33		2	unambiguous	right	preferred	66.0	88.0		16.605872899875976	0.033314700005576015
5	12.56447759992443	stim	34		2	unambiguous	right	preferred	66.0	88.0		16.639187599881552	0.03393340006005019
5	12.59841099998448	stim	35		2	unambiguous	right	preferred	66.0	88.0		16.673120999941602	0.03334810002706945
5	12.63175910001155	stim	36		2	unambiguous	right	preferred	66.0	88.0		16.706469099968672	0.03374310000799596
5	12.665502200019546	stim	37		2	unambiguous	right	preferred	66.0	88.0		16.740212199976668	0.033348599914461374
5	12.698850799934007	stim	38		2	unambiguous	right	preferred	66.0	88.0		16.77356079989113	0.033999400096945465
5	12.732850200030953	stim	39		2	unambiguous	right	preferred	66.0	88.0		16.807560199988075	0.033929299912415445
5	12.766779499943368	stim	40		2	unambiguous	right	preferred	66.0	88.0		16.84148949990049	0.033388699986971915
5	12.80016819993034	stim	41		2	unambiguous	right	preferred	66.0	88.0		16.874878199887462	0.03330920008011162
5	12.833477400010452	stim	42		2	unambiguous	right	preferred	66.0	88.0		16.908187399967574	0.03363670001272112
5	12.867114100023173	stim	43		2	unambiguous	right	preferred	66.0	88.0		16.941824099980295	0.03395059995818883
5	12.901064699981362	stim	44		2	unambiguous	right	preferred	66.0	88.0		16.975774699938484	0.03331790002994239
5	12.934382600011304	stim	45		2	unambiguous	right	preferred	66.0	88.0		17.009092599968426	0.03332899999804795
5	12.967711600009352	stim	46		2	unambiguous	right	preferred	66.0	88.0		17.042421599966474	0.03402969997841865
5	13.00174129998777	stim	47		2	unambiguous	right	preferred	66.0	88.0		17.076451299944893	0.0330054999794811
5	13.034746799967252	stim	48		2	unambiguous	right	preferred	66.0	88.0		17.109456799924374	0.033308399957604706
5	13.068055199924856	stim	49		2	unambiguous	right	preferred	66.0	88.0		17.14276519988198	0.03410360007546842
5	13.102158800000325	stim	50		2	unambiguous	right	preferred	66.0	88.0		17.176868799957447	0.033347400021739304
5	13.135506200022064	stim	51		2	unambiguous	right	preferred	66.0	88.0		17.210216199979186	0.03371999994851649
5	13.16922619997058	stim	52		2	unambiguous	right	preferred	66.0	88.0		17.243936199927703	0.033548900042660534
5	13.202775100013241	stim	53		2	unambiguous	right	preferred	66.0	88.0		17.277485099970363	0.03312699997331947
5	13.23590209998656	stim	54		2	unambiguous	right	preferred	66.0	88.0		17.310612099943683	0.033339499961584806
5	13.269241599948145	stim	55		2	unambiguous	right	preferred	66.0	88.0		17.343951599905267	0.03350680007133633
5	13.302748400019482	stim	56		2	unambiguous	right	preferred	66.0	88.0		17.377458399976604	0.033689499949105084
5	13.336437899968587	stim	57		2	unambiguous	right	preferred	66.0	88.0		17.41114789992571	0.03371200000401586
5	13.370149899972603	stim	58		2	unambiguous	right	preferred	66.0	88.0		17.444859899929725	0.033410800038836896
5	13.40356070001144	stim	59		2	unambiguous	right	preferred	66.0	88.0		17.47827069996856	0.03327359992545098
5	13.43683429993689	stim	60		2	unambiguous	right	preferred	66.0	88.0		17.511544299894013	0.03382860007695854
5	13.47066290001385	stim	61		2	unambiguous	right	preferred	66.0	88.0		17.54537289997097	0.03310299990698695
5	13.503765899920836	stim	62		2	unambiguous	right	preferred	66.0	88.0		17.578475899877958	0.0335346000501886
5	13.537300499971025	stim	63		2	unambiguous	right	preferred	66.0	88.0		17.612010499928147	0.033390299999155104
5	13.57069079997018	stim	64		2	unambiguous	right	preferred	66.0	88.0		17.6454007999273	0.033692199969664216
5	13.604382999939844	stim	65		2	unambiguous	right	preferred	66.0	88.0		17.679092999896966	0.03372250008396804
6	13.638105500023812	stim	0		2	unambiguous	left	preferred	67.0	154.0		17.712815499980934	0.03429219999816269
6	13.672397700021975	stim	1		2	unambiguous	left	preferred	67.0	154.0		17.747107699979097	0.03296949993818998
6	13.705367199960165	stim	2		2	unambiguous	left	preferred	67.0	154.0		17.780077199917287	0.03403680003248155
6	13.739403999992646	stim	3		2	unambiguous	left	preferred	67.0	154.0		17.814113999949768	0.033502799924463034
6	13.77290679991711	stim	4		2	unambiguous	left	preferred	67.0	154.0		17.84761679987423	0.03369880001991987
6	13.80660559993703	stim	5		2	unambiguous	left	preferred	67.0	154.0		17.88131559989415	0.034103100071661174
6	13.84070870000869	stim	6		2	unambiguous	left	preferred	67.0	154.0		17.915418699965812	0.03364879998844117
6	13.874357499997132	stim	7		2	unambiguous	left	preferred	67.0	154.0		17.949067499954253	0.033347100019454956
6	13.907704600016586	stim	8		2	unambiguous	left	preferred	67.0	154.0		17.98241459997371	0.033348499913699925
6	13.941053099930286	stim	9		2	unambiguous	left	preferred	67.0	154.0		18.01576309988741	0.03377730003558099
6	13.974830399965867	stim	10		2	unambiguous	left	preferred	67.0	154.0		18.04954039992299	0.03317599999718368
6	14.008006399963051	stim	11		2	unambiguous	left	preferred	67.0	154.0		18.082716399920173	0.033566600061021745
6	14.041573000024073	stim	12		2	unambiguous	left	preferred	67.0	154.0		18.116282999981195	0.03338819998316467
6	14.074961200007237	stim	13		2	unambiguous	left	preferred	67.0	154.0		18.14967119996436	0.03335789998527616
6	14.108319099992514	stim	14		2	unambiguous	left	preferred	67.0	154.0		18.183029099949636	0.034435799927450716
6	14.142754899919964	stim	15		2	unambiguous	left	preferred	67.0	154.0		18.217464899877086	0.03298780007753521
6	14.1757426999975	stim	16		2	unambiguous	left	preferred	67.0	154.0		18.25045269995462	0.03325590002350509
6	14.208998600021005	stim	17		2	unambiguous	left	preferred	67.0	154.0		18.283708599978127	0.03403699991758913
6	14.243035599938594	stim	18		2	unambiguous	left	preferred	67.0	154.0		18.317745599895716	0.03300280007533729
6	14.276038400013931	stim	19		2	unambiguous	left	preferred	67.0	154.0		18.350748399971053	0.033421400003135204
6	14.309459800017066	stim	20		2	unambiguous	left	preferred	67.0	154.0		18.384169799974188	0.033342699985951185
6	14.342802500003017	stim	21		2	unambiguous	left	preferred	67.0	154.0		18.41751249996014	0.033432899974286556
6	14.376235399977304	stim	22		2	unambiguous	left	preferred	67.0	154.0		18.450945399934426	0.033338199951685965
6	14.40957359992899	stim	23		2	unambiguous	left	preferred	67.0	154.0		18.484283599886112	0.03378820000216365
6	14.443361799931154	stim	24		2	unambiguous	left	preferred	67.0	154.0		18.518071799888276	0.03369740000925958
6	14.477059199940413	stim	25		2	unambiguous	left	preferred	67.0	154.0		18.551769199897535	0.03332280006725341
6	14.510382000007667	stim	26		2	unambiguous	left	preferred	67.0	154.0		18.58509199996479	0.03362180001568049
6	14.544003800023347	stim	27		2	unambiguous	left	preferred	67.0	154.0		18.61871379998047	0.03341119992546737
6	14.577414999948815	stim	28		2	unambiguous	left	preferred	67.0	154.0		18.652124999905936	0.033338400069624186
6	14.610753400018439	stim	29		2	unambiguous	left	preferred	67.0	154.0		18.68546339997556	0.03352089994587004
6	14.644274299964309	stim	30		2	unambiguous	left	preferred	67.0	154.0		18.71898429992143	0.03344759996980429
6	14.677721899934113	stim	31		2	unambiguous	left	preferred	67.0	154.0		18.752431899891235	0.03347730007953942
6	14.711199200013652	stim	32		2	unambiguous	left	preferred	67.0	154.0		18.785909199970774	0.033373799989931285
6	14.744573000003584	stim	33		2	unambiguous	left	preferred	67.0	154.0		18.819282999960706	0.033628399949520826
6	14.778201399953105	stim	34		2	unambiguous	left	preferred	67.0	154.0		18.852911399910226	0.03329459996894002
6	14.811495999922045	stim	35		2	unambiguous	left	preferred	67.0	154.0		18.886205999879166	0.033491100068204105
6	14.844987099990249	stim	36		2	unambiguous	left	preferred	67.0	154.0		18.91969709994737	0.03494909999426454
6	14.879936199984513	stim	37		2	unambiguous	left	preferred	67.0	154.0		18.954646199941635	0.03182909998577088
6	14.911765299970284	stim	38		2	unambiguous	left	preferred	67.0	154.0		18.986475299927406	0.03334389999508858
6	14.945109199965373	stim	39		2	unambiguous	left	preferred	67.0	154.0		19.019819199922495	0.035421499982476234
6	14.980530699947849	stim	40		2	unambiguous	left	preferred	67.0	154.0		19.05524069990497	0.033199100056663156
6	15.013729800004512	stim	41		2	unambiguous	left	preferred	67.0	154.0		19.088439799961634	0.03331779991276562
6	15.047047599917278	stim	42		2	unambiguous	left	preferred	67.0	154.0		19.1217575998744	0.033375500002875924
6	15.080423099920154	stim	43		2	unambiguous	left	preferred	67.0	154.0		19.155133099877276	0.033252599998377264
6	15.11367569991853	stim	44		2	unambiguous	left	preferred	67.0	154.0		19.188385699875653	0.033466000109910965
6	15.147141700028442	stim	45		2	unambiguous	left	preferred	67.0	154.0		19.221851699985564	0.03340590000152588
6	15.180547600029968	stim	46		2	unambiguous	left	preferred	67.0	154.0		19.25525759998709	0.033686299924738705
6	15.214233899954706	stim	47		2	unambiguous	left	preferred	67.0	154.0		19.28894389991183	0.032839099992997944
6	15.247072999947704	stim	48		2	unambiguous	left	preferred	67.0	154.0		19.321782999904826	0.03345520002767444
6	15.280528199975379	stim	49		2	unambiguous	left	preferred	67.0	154.0		19.3552381999325	0.033173599978908896
6	15.313701799954288	stim	50		2	unambiguous	left	preferred	67.0	154.0		19.38841179991141	0.03350480005610734
6	15.347206600010395	stim	51		2	unambiguous	left	preferred	67.0	154.0		19.421916599967517	0.033428399940021336
6	15.380634999950416	stim	52		2	unambiguous	left	preferred	67.0	154.0		19.45534499990754	0.0335464000236243
6	15.41418139997404	stim	53		2	unambiguous	left	preferred	67.0	154.0		19.488891399931163	0.0333404999691993
6	15.44752189994324	stim	54		2	unambiguous	left	preferred	67.0	154.0		19.522231899900362	0.033279100083746016
6	15.480801000026986	stim	55		2	unambiguous	left	preferred	67.0	154.0		19.555510999984108	0.03356809995602816
6	15.514369099983014	stim	56		2	unambiguous	left	preferred	67.0	154.0		19.589079099940136	0.03395670000463724
6	15.548325799987651	stim	57		2	unambiguous	left	preferred	67.0	154.0		19.623035799944773	0.033105600043199956
6	15.581431400030851	stim	58		2	unambiguous	left	preferred	67.0	154.0		19.656141399987973	0.03333149990066886
6	15.61476289993152	stim	59		2	unambiguous	left	preferred	67.0	154.0		19.689472899888642	0.03333950007800013
6	15.64810240000952	stim	60		2	unambiguous	left	preferred	67.0	154.0		19.722812399966642	0.03374659991823137
6	15.681848999927752	stim	61		2	unambiguous	left	preferred	67.0	154.0		19.756558999884874	0.03335879999212921
6	15.715207799919881	stim	62		2	unambiguous	left	preferred	67.0	154.0		19.789917799877003	0.03340160008519888
6	15.74860940000508	stim	63		2	unambiguous	left	preferred	67.0	154.0		19.8233193999622	0.03337299998383969
6	15.78198239998892	stim	64		2	unambiguous	left	preferred	67.0	154.0		19.85669239994604	0.033265499980188906
6	15.815247899969108	stim	65		2	unambiguous	left	preferred	67.0	154.0		19.88995789992623	0.03363590000662953
6	15.848883799975738	stim	66		2	unambiguous	left	preferred	67.0	154.0		19.92359379993286	0.033370699966326356
7	15.882254499942064	stim	0		2	unambiguous	right	preferred	69.0	31.0		19.956964499899186	0.0338269000640139
7	15.916081400006078	stim	1		2	unambiguous	right	preferred	69.0	31.0		19.9907913999632	0.03325159999076277
7	15.949332999996841	stim	2		2	unambiguous	right	preferred	69.0	31.0		20.024042999953963	0.03340379998553544
7	15.982736799982376	stim	3		2	unambiguous	right	preferred	69.0	31.0		20.0574467999395	0.033489499939605594
7	16.016226299921982	stim	4		2	unambiguous	right	preferred	69.0	31.0		20.090936299879104	0.03331580001395196
7	16.049542099935934	stim	5		2	unambiguous	right	preferred	69.0	31.0		20.124252099893056	0.03333370003383607
7	16.08287579996977	stim	6		2	unambiguous	right	preferred	69.0	31.0		20.157585799926892	0.033335600048303604
7	16.116211400018074	stim	7		2	unambiguous	right	preferred	69.0	31.0		20.190921399975196	0.03337719989940524
7	16.14958859991748	stim	8		2	unambiguous	right	preferred	69.0	31.0		20.2242985998746	0.03351360000669956
7	16.18310219992418	stim	9		2	unambiguous	right	preferred	69.0	31.0		20.2578121998813	0.033551800064742565
7	16.21665399998892	stim	10		2	unambiguous	right	preferred	69.0	31.0		20.291363999946043	0.033386999974027276
7	16.25004099996295	stim	11		2	unambiguous	right	preferred	69.0	31.0		20.32475099992007	0.03328119998332113
7	16.28332219994627	stim	12		2	unambiguous	right	preferred	69.0	31.0		20.35803219990339	0.033354600076563656
7	16.316676800022833	stim	13		2	unambiguous	right	preferred	69.0	31.0		20.391386799979955	0.03356429992709309
7	16.350241099949926	stim	14		2	unambiguous	right	preferred	69.0	31.0		20.424951099907048	0.033316000015474856
7	16.3835570999654	stim	15		2	unambiguous	right	preferred	69.0	31.0		20.458267099922523	0.03366219997406006
7	16.41721929993946	stim	16		2	unambiguous	right	preferred	69.0	31.0		20.491929299896583	0.033329600002616644
7	16.450548899942078	stim	17		2	unambiguous	right	preferred	69.0	31.0		20.5252588998992	0.03363870002795011
7	16.484187599970028	stim	18		2	unambiguous	right	preferred	69.0	31.0		20.55889759992715	0.033475799951702356
7	16.51766339992173	stim	19		2	unambiguous	right	preferred	69.0	31.0		20.592373399878852	0.03330180002376437
7	16.550965199945495	stim	20		2	unambiguous	right	preferred	69.0	31.0		20.625675199902616	0.03329200006555766
7	16.584257200011052	stim	21		2	unambiguous	right	preferred	69.0	31.0		20.658967199968174	0.03370069991797209
7	16.617957899929024	stim	22		2	unambiguous	right	preferred	69.0	31.0		20.692667899886146	0.0333244000794366
7	16.65128230000846	stim	23		2	unambiguous	right	preferred	69.0	31.0		20.725992299965583	0.03406629990786314
7	16.685348599916324	stim	24		2	unambiguous	right	preferred	69.0	31.0		20.760058599873446	0.0332935000769794
7	16.718642099993303	stim	25		2	unambiguous	right	preferred	69.0	31.0		20.793352099950425	0.0334644999820739
7	16.752106599975377	stim	26		2	unambiguous	right	preferred	69.0	31.0		20.8268165999325	0.033636300009675324
7	16.785742899985053	stim	27		2	unambiguous	right	preferred	69.0	31.0		20.860452899942175	0.03322650003246963
7	16.818969400017522	stim	28		2	unambiguous	right	preferred	69.0	31.0		20.893679399974644	0.03334520000498742
7	16.85231460002251	stim	29		2	unambiguous	right	preferred	69.0	31.0		20.92702459997963	0.033309899969026446
7	16.885624499991536	stim	30		2	unambiguous	right	preferred	69.0	31.0		20.960334499948658	0.03367779997643083
7	16.919302299967967	stim	31		2	unambiguous	right	preferred	69.0	31.0		20.99401229992509	0.03339710005093366
7	16.9526994000189	stim	32		2	unambiguous	right	preferred	69.0	31.0		21.027409399976023	0.03326930000912398
7	16.985968700028025	stim	33		2	unambiguous	right	preferred	69.0	31.0		21.060678699985147	0.0332973999902606
7	17.019266100018285	stim	34		2	unambiguous	right	preferred	69.0	31.0		21.093976099975407	0.033752999966964126
7	17.05301909998525	stim	35		2	unambiguous	right	preferred	69.0	31.0		21.12772909994237	0.033324699965305626
7	17.086343799950555	stim	36		2	unambiguous	right	preferred	69.0	31.0		21.161053799907677	0.03354400000534952
7	17.119887799955904	stim	37		2	unambiguous	right	preferred	69.0	31.0		21.194597799913026	0.03402390005066991
7	17.153911700006574	stim	38		2	unambiguous	right	preferred	69.0	31.0		21.228621699963696	0.03428109991364181
7	17.188192799920216	stim	39		2	unambiguous	right	preferred	69.0	31.0		21.262902799877338	0.033052500104531646
7	17.221245300024748	stim	40		2	unambiguous	right	preferred	69.0	31.0		21.29595529998187	0.03375399997457862
7	17.254999299999326	stim	41		2	unambiguous	right	preferred	69.0	31.0		21.32970929995645	0.03316310001537204
7	17.2881624000147	stim	42		2	unambiguous	right	preferred	69.0	31.0		21.36287239997182	0.03354480001144111
7	17.32170720002614	stim	43		2	unambiguous	right	preferred	69.0	31.0		21.39641719998326	0.03381279995664954
7	17.35551999998279	stim	44		2	unambiguous	right	preferred	69.0	31.0		21.43022999993991	0.03355789999477565
7	17.389077899977565	stim	45		2	unambiguous	right	preferred	69.0	31.0		21.463787899934687	0.033323599956929684
7	17.422401499934494	stim	46		2	unambiguous	right	preferred	69.0	31.0		21.497111499891616	0.0338383000344038
7	17.4562397999689	stim	47		2	unambiguous	right	preferred	69.0	31.0		21.53094979992602	0.033629899960942566
7	17.48986969992984	stim	48		2	unambiguous	right	preferred	69.0	31.0		21.564579699886963	0.03340469999238849
7	17.52327439992223	stim	49		2	unambiguous	right	preferred	69.0	31.0		21.59798439987935	0.033636300009675324
7	17.556910699931905	stim	50		2	unambiguous	right	preferred	69.0	31.0		21.631620699889027	0.03332879999652505
7	17.59023949992843	stim	51		2	unambiguous	right	preferred	69.0	31.0		21.66494949988555	0.03328259999398142
7	17.62352209992241	stim	52		2	unambiguous	right	preferred	69.0	31.0		21.698232099879533	0.03404180007055402
7	17.657563899992965	stim	53		2	unambiguous	right	preferred	69.0	31.0		21.732273899950087	0.033528100000694394
7	17.69109199999366	stim	54		2	unambiguous	right	preferred	69.0	31.0		21.76580199995078	0.033324799966067076
7	17.724416799959727	stim	55		2	unambiguous	right	preferred	69.0	31.0		21.79912679991685	0.03403069998603314
7	17.75844749994576	stim	56		2	unambiguous	right	preferred	69.0	31.0		21.83315749990288	0.03305730002466589
7	17.791504799970426	stim	57		2	unambiguous	right	preferred	69.0	31.0		21.866214799927548	0.033819700009189546
7	17.825324499979615	stim	58		2	unambiguous	right	preferred	69.0	31.0		21.900034499936737	0.033982899971306324
7	17.85930739995092	stim	59		2	unambiguous	right	preferred	69.0	31.0		21.934017399908043	0.03368130000308156
7	17.892988699954003	stim	60		2	unambiguous	right	preferred	69.0	31.0		21.967698699911125	0.03340000007301569
7	17.92638870002702	stim	61		2	unambiguous	right	preferred	69.0	31.0		22.00109869998414	0.033401999971829355
7	17.959790699998848	stim	62		2	unambiguous	right	preferred	69.0	31.0		22.03450069995597	0.033563199918717146
7	17.993353899917565	stim	63		2	unambiguous	right	preferred	69.0	31.0		22.068063899874687	0.03340880002360791
7	18.026762699941173	stim	64		2	unambiguous	right	preferred	69.0	31.0		22.101472699898295	0.03379130002576858
7	18.06055399996694	stim	65		2	unambiguous	right	preferred	69.0	31.0		22.135263999924064	0.03348780004307628
7	18.094041800010018	stim	66		2	unambiguous	right	preferred	69.0	31.0		22.16875179996714	0.0332711999071762
7	18.127312999917194	stim	67		2	unambiguous	right	preferred	69.0	31.0		22.202022999874316	0.03342400002293289
7	18.160736999940127	stim	68		2	unambiguous	right	preferred	69.0	31.0		22.23544699989725	0.033659800072200596
8	18.194396800012328	stim	0		2	unambiguous	left	preferred	67.0	100.0		22.26910679996945	0.03336989996023476
8	18.227766699972562	stim	1		2	unambiguous	left	preferred	67.0	100.0		22.302476699929684	0.03347080003004521
8	18.261237500002608	stim	2		2	unambiguous	left	preferred	67.0	100.0		22.33594749995973	0.03347229992505163
8	18.29470979992766	stim	3		2	unambiguous	left	preferred	67.0	100.0		22.36941979988478	0.0334102000342682
8	18.328119999961928	stim	4		2	unambiguous	left	preferred	67.0	100.0		22.40282999991905	0.033412400051020086
8	18.361532400012948	stim	5		2	unambiguous	left	preferred	67.0	100.0		22.43624239997007	0.034983999910764396
8	18.396516399923712	stim	6		2	unambiguous	left	preferred	67.0	100.0		22.471226399880834	0.033690900076180696
8	18.430207299999893	stim	7		2	unambiguous	left	preferred	67.0	100.0		22.504917299957015	0.033410599920898676
8	18.46361789992079	stim	8		2	unambiguous	left	preferred	67.0	100.0		22.538327899877913	0.03338770009577274
8	18.497005600016564	stim	9		2	unambiguous	left	preferred	67.0	100.0		22.571715599973686	0.03336269990541041
8	18.530368299921975	stim	10		2	unambiguous	left	preferred	67.0	100.0		22.605078299879096	0.033232000074349344
8	18.563600299996324	stim	11		2	unambiguous	left	preferred	67.0	100.0		22.638310299953446	0.03350289992522448
8	18.59710319992155	stim	12		2	unambiguous	left	preferred	67.0	100.0		22.67181319987867	0.033242200035601854
8	18.63034539995715	stim	13		2	unambiguous	left	preferred	67.0	100.0		22.705055399914272	0.033274900051765144
8	18.663620300008915	stim	14		2	unambiguous	left	preferred	67.0	100.0		22.738330299966037	0.034373799921013415
8	18.69799409992993	stim	15		2	unambiguous	left	preferred	67.0	100.0		22.77270409988705	0.032415300025604665
8	18.730409399955533	stim	16		2	unambiguous	left	preferred	67.0	100.0		22.805119399912655	0.03329150006175041
8	18.763700900017284	stim	17		2	unambiguous	left	preferred	67.0	100.0		22.838410899974406	0.033754699979908764
8	18.797455599997193	stim	18		2	unambiguous	left	preferred	67.0	100.0		22.872165599954315	0.03279279998969287
8	18.830248399986885	stim	19		2	unambiguous	left	preferred	67.0	100.0		22.904958399944007	0.03335359995253384
8	18.86360199993942	stim	20		2	unambiguous	left	preferred	67.0	100.0		22.93831199989654	0.03339360002428293
8	18.896995599963702	stim	21		2	unambiguous	left	preferred	67.0	100.0		22.971705599920824	0.03361130005214363
8	18.930606900015846	stim	22		2	unambiguous	left	preferred	67.0	100.0		23.005316899972968	0.03360849991440773
8	18.964215399930254	stim	23		2	unambiguous	left	preferred	67.0	100.0		23.038925399887376	0.033117600018158555
8	18.997332999948412	stim	24		2	unambiguous	left	preferred	67.0	100.0		23.072042999905534	0.03366359998472035
8	19.030996599933133	stim	25		2	unambiguous	left	preferred	67.0	100.0		23.105706599890254	0.033373799989931285
8	19.064370399923064	stim	26		2	unambiguous	left	preferred	67.0	100.0		23.139080399880186	0.033236300107091665
8	19.097606700030155	stim	27		2	unambiguous	left	preferred	67.0	100.0		23.172316699987277	0.03331839991733432
8	19.13092509994749	stim	28		2	unambiguous	left	preferred	67.0	100.0		23.20563509990461	0.033974000019952655
8	19.164899099967442	stim	29		2	unambiguous	left	preferred	67.0	100.0		23.239609099924564	0.033205099985934794
8	19.198104199953377	stim	30		2	unambiguous	left	preferred	67.0	100.0		23.2728141999105	0.03325199999380857
8	19.231356199947186	stim	31		2	unambiguous	left	preferred	67.0	100.0		23.306066199904308	0.03331810003146529
8	19.26467429997865	stim	32		2	unambiguous	left	preferred	67.0	100.0		23.339384299935773	0.03375279996544123
8	19.298427099944092	stim	33		2	unambiguous	left	preferred	67.0	100.0		23.373137099901214	0.03335140005219728
8	19.33177849999629	stim	34		2	unambiguous	left	preferred	67.0	100.0		23.40648849995341	0.0333478000247851
8	19.365126300021075	stim	35		2	unambiguous	left	preferred	67.0	100.0		23.439836299978197	0.03339639992918819
8	19.398522699950263	stim	36		2	unambiguous	left	preferred	67.0	100.0		23.473232699907385	0.033697100006975234
8	19.432219799957238	stim	37		2	unambiguous	left	preferred	67.0	100.0		23.50692979991436	0.033335500047542155
8	19.46555530000478	stim	38		2	unambiguous	left	preferred	67.0	100.0		23.540265299961902	0.033332400023937225
8	19.498887700028718	stim	39		2	unambiguous	left	preferred	67.0	100.0		23.57359769998584	0.033788499888032675
8	19.53267619991675	stim	40		2	unambiguous	left	preferred	67.0	100.0		23.607386199873872	0.03318700008094311
8	19.565863199997693	stim	41		2	unambiguous	left	preferred	67.0	100.0		23.640573199954815	0.03370159992482513
8	19.59956479992252	stim	42		2	unambiguous	left	preferred	67.0	100.0		23.67427479987964	0.03323550010100007
8	19.63280030002352	stim	43		2	unambiguous	left	preferred	67.0	100.0		23.70751029998064	0.033330799895338714
8	19.666131099918857	stim	44		2	unambiguous	left	preferred	67.0	100.0		23.74084109987598	0.03332130005583167
8	19.69945239997469	stim	45		2	unambiguous	left	preferred	67.0	100.0		23.77416239993181	0.033662899979390204
8	19.73311529995408	stim	46		2	unambiguous	left	preferred	67.0	100.0		23.8078252999112	0.03333360003307462
8	19.766448899987154	stim	47		2	unambiguous	left	preferred	67.0	100.0		23.841158899944276	0.033400299958884716
8	19.79984919994604	stim	48		2	unambiguous	left	preferred	67.0	100.0		23.87455919990316	0.03326100006233901
8	19.833110200008377	stim	49		2	unambiguous	left	preferred	67.0	100.0		23.9078201999655	0.03373429994098842
8	19.866844499949366	stim	50		2	unambiguous	left	preferred	67.0	100.0		23.941554499906488	0.0333240000763908
8	19.900168500025757	stim	51		2	unambiguous	left	preferred	67.0	100.0		23.97487849998288	0.03334239998366684
8	19.933510900009423	stim	52		2	unambiguous	left	preferred	67.0	100.0		24.008220899966545	0.033655199920758605
8	19.967166099930182	stim	53		2	unambiguous	left	preferred	67.0	100.0		24.041876099887304	0.03353910008445382
8	20.000705200014636	stim	54		2	unambiguous	left	preferred	67.0	100.0		24.075415199971758	0.03361919999588281
8	20.03432440001052	stim	55		2	unambiguous	left	preferred	67.0	100.0		24.10903439996764	0.033625399926677346
8	20.067949799937196	stim	56		2	unambiguous	left	preferred	67.0	100.0		24.142659799894318	0.03340170008596033
8	20.101351500023156	stim	57		2	unambiguous	left	preferred	67.0	100.0		24.17606149998028	0.03398039995227009
8	20.135331899975426	stim	58		2	unambiguous	left	preferred	67.0	100.0		24.21004189993255	0.033326199976727366
8	20.168658099952154	stim	59		2	unambiguous	left	preferred	67.0	100.0		24.243368099909276	0.03364270005840808
8	20.202300800010562	stim	60		2	unambiguous	left	preferred	67.0	100.0		24.277010799967684	0.03316959994845092
8	20.235470399959013	stim	61		2	unambiguous	left	preferred	67.0	100.0		24.310180399916135	0.033347200020216405
8	20.26881759997923	stim	62		2	unambiguous	left	preferred	67.0	100.0		24.34352759993635	0.03332299995236099
8	20.30214059993159	stim	63		2	unambiguous	left	preferred	67.0	100.0		24.376850599888712	0.03331500000786036
8	20.33545559993945	stim	64		2	unambiguous	left	preferred	67.0	100.0		24.410165599896573	0.03344750008545816
8	20.36890310002491	stim	65		2	unambiguous	left	preferred	67.0	100.0		24.44361309998203	0.03377559990622103
8	20.40267869993113	stim	66		2	unambiguous	left	preferred	67.0	100.0		24.47738869988825	0.03363140008877963
0	20.43631010001991	stim	0		120	break	break	preferred	1.0	0.0		24.51102009997703	2.0069798999466
10	22.44328999996651	stim	0		2	ambiguous	ambiguous	preferred	600.0	30.0		26.51799999992363	0.033442300045862794
10	22.476732300012372	stim	1		2	ambiguous	ambiguous	preferred	600.0	30.0		26.551442299969494	0.03357709990814328
10	22.510309399920516	stim	2		2	ambiguous	ambiguous	preferred	600.0	30.0		26.585019399877638	0.03345760004594922
10	22.543766999966465	stim	3		2	ambiguous	ambiguous	preferred	600.0	30.0		26.618476999923587	0.03383690002374351
10	22.57760389999021	stim	4		2	ambiguous	ambiguous	preferred	600.0	30.0		26.65231389994733	0.0332240000134334
10	22.610827900003642	stim	5		2	ambiguous	ambiguous	preferred	600.0	30.0		26.685537899960764	0.033994399942457676
10	22.6448222999461	stim	6		2	ambiguous	ambiguous	preferred	600.0	30.0		26.71953229990322	0.033246700069867074
10	22.678069000015967	stim	7		2	ambiguous	ambiguous	preferred	600.0	30.0		26.75277899997309	0.035021399962715805
10	22.713090399978682	stim	8		2	ambiguous	ambiguous	preferred	600.0	30.0		26.787800399935804	0.0317909000441432
10	22.744881300022826	stim	9		2	ambiguous	ambiguous	preferred	600.0	30.0		26.819591299979948	0.035265899961814284
10	22.78014719998464	stim	10		2	ambiguous	ambiguous	preferred	600.0	30.0		26.854857199941762	0.033524899976328015
10	22.813672099960968	stim	11		2	ambiguous	ambiguous	preferred	600.0	30.0		26.88838209991809	0.03334339999128133
10	22.84701549995225	stim	12		2	ambiguous	ambiguous	preferred	600.0	30.0		26.92172549990937	0.03318510006647557
10	22.880200600018725	stim	13		2	ambiguous	ambiguous	preferred	600.0	30.0		26.954910599975847	0.033318899921141565
10	22.913519499939866	stim	14		2	ambiguous	ambiguous	preferred	600.0	30.0		26.98822949989699	0.033643600065261126
10	22.947163100005127	stim	15		2	ambiguous	ambiguous	preferred	600.0	30.0		27.02187309996225	0.03297609998844564
10	22.980139199993573	stim	16		2	ambiguous	ambiguous	preferred	600.0	30.0		27.054849199950695	0.033412399934604764
10	23.013551599928178	stim	17		2	ambiguous	ambiguous	preferred	600.0	30.0		27.0882615998853	0.03342500003054738
10	23.046976599958725	stim	18		2	ambiguous	ambiguous	preferred	600.0	30.0		27.121686599915847	0.03337439999449998
10	23.080350999953225	stim	19		2	ambiguous	ambiguous	preferred	600.0	30.0		27.155060999910347	0.033186999964527786
10	23.113537999917753	stim	20		2	ambiguous	ambiguous	preferred	600.0	30.0		27.188247999874875	0.03336700005456805
10	23.14690499997232	stim	21		2	ambiguous	ambiguous	preferred	600.0	30.0		27.221614999929443	0.03335639997385442
10	23.180261399946176	stim	22		2	ambiguous	ambiguous	preferred	600.0	30.0		27.254971399903297	0.03325590002350509
10	23.21351729996968	stim	23		2	ambiguous	ambiguous	preferred	600.0	30.0		27.288227299926803	0.0334455999545753
10	23.246962899924256	stim	24		2	ambiguous	ambiguous	preferred	600.0	30.0		27.321672899881378	0.03361230005975813
10	23.280575199984014	stim	25		2	ambiguous	ambiguous	preferred	600.0	30.0		27.355285199941136	0.03299929993227124
10	23.313574499916285	stim	26		2	ambiguous	ambiguous	preferred	600.0	30.0		27.388284499873407	0.03333820006810129
10	23.346912699984387	stim	27		2	ambiguous	ambiguous	preferred	600.0	30.0		27.42162269994151	0.033621500013396144
10	23.380534199997783	stim	28		2	ambiguous	ambiguous	preferred	600.0	30.0		27.455244199954905	0.03335539996623993
10	23.413889599964023	stim	29		2	ambiguous	ambiguous	preferred	600.0	30.0		27.488599599921145	0.033411200041882694
10	23.447300800005905	stim	30		2	ambiguous	ambiguous	preferred	600.0	30.0		27.522010799963027	0.033390399999916553
10	23.480691200005822	stim	31		2	ambiguous	ambiguous	preferred	600.0	30.0		27.555401199962944	0.03299079998396337
10	23.513681999989785	stim	32		2	ambiguous	ambiguous	preferred	600.0	30.0		27.588391999946907	0.03359519992955029
10	23.547277199919336	stim	33		2	ambiguous	ambiguous	preferred	600.0	30.0		27.621987199876457	0.03326100006233901
10	23.580538199981675	stim	34		2	ambiguous	ambiguous	preferred	600.0	30.0		27.655248199938796	0.03340159996878356
10	23.613939799950458	stim	35		2	ambiguous	ambiguous	preferred	600.0	30.0		27.68864979990758	0.03339980007149279
10	23.64733960002195	stim	36		2	ambiguous	ambiguous	preferred	600.0	30.0		27.722049599979073	0.03341749997343868
10	23.68075709999539	stim	37		2	ambiguous	ambiguous	preferred	600.0	30.0		27.75546709995251	0.03338819998316467
10	23.714145299978554	stim	38		2	ambiguous	ambiguous	preferred	600.0	30.0		27.788855299935676	0.03351730003487319
10	23.747662600013427	stim	39		2	ambiguous	ambiguous	preferred	600.0	30.0		27.82237259997055	0.03374350001104176
10	23.78140610002447	stim	40		2	ambiguous	ambiguous	preferred	600.0	30.0		27.85611609998159	0.03326039994135499
10	23.814666499965824	stim	41		2	ambiguous	ambiguous	preferred	600.0	30.0		27.889376499922946	0.03374250000342727
10	23.84840899996925	stim	42		2	ambiguous	ambiguous	preferred	600.0	30.0		27.923118999926373	0.03333939996082336
10	23.881748399930075	stim	43		2	ambiguous	ambiguous	preferred	600.0	30.0		27.956458399887197	0.03364450007211417
10	23.91539290000219	stim	44		2	ambiguous	ambiguous	preferred	600.0	30.0		27.99010289995931	0.03347119991667569
10	23.948864099918865	stim	45		2	ambiguous	ambiguous	preferred	600.0	30.0		28.023574099875987	0.03319830005057156
10	23.982062399969436	stim	46		2	ambiguous	ambiguous	preferred	600.0	30.0		28.056772399926558	0.03332150005735457
10	24.01538390002679	stim	47		2	ambiguous	ambiguous	preferred	600.0	30.0		28.090093899983913	0.03338469995651394
10	24.048768599983305	stim	48		2	ambiguous	ambiguous	preferred	600.0	30.0		28.123478599940427	0.03399979998357594
10	24.08276839996688	stim	49		2	ambiguous	ambiguous	preferred	600.0	30.0		28.157478399924003	0.0330991999944672
10	24.115867599961348	stim	50		2	ambiguous	ambiguous	preferred	600.0	30.0		28.19057759991847	0.03407279995735735
10	24.149940399918705	stim	51		2	ambiguous	ambiguous	preferred	600.0	30.0		28.224650399875827	0.03329590009525418
10	24.18323630001396	stim	52		2	ambiguous	ambiguous	preferred	600.0	30.0		28.25794629997108	0.03334959992207587
10	24.216585899936035	stim	53		2	ambiguous	ambiguous	preferred	600.0	30.0		28.291295899893157	0.033313299994915724
10	24.24989919993095	stim	54		2	ambiguous	ambiguous	preferred	600.0	30.0		28.324609199888073	0.03356850007548928
10	24.28346770000644	stim	55		2	ambiguous	ambiguous	preferred	600.0	30.0		28.358177699963562	0.033271499909460545
10	24.3167391999159	stim	56		2	ambiguous	ambiguous	preferred	600.0	30.0		28.391449199873023	0.03326820000074804
10	24.35000739991665	stim	57		2	ambiguous	ambiguous	preferred	600.0	30.0		28.42471739987377	0.03367560007609427
10	24.383682999992743	stim	58		2	ambiguous	ambiguous	preferred	600.0	30.0		28.458392999949865	0.03391939995344728
10	24.41760239994619	stim	59		2	ambiguous	ambiguous	preferred	600.0	30.0		28.492312399903312	0.033412600052542984
10	24.451014999998733	stim	60		2	ambiguous	ambiguous	preferred	600.0	30.0		28.525724999955855	0.03337439999449998
10	24.484389399993233	stim	61		2	ambiguous	ambiguous	preferred	600.0	30.0		28.559099399950355	0.033532400033436716
10	24.51792180002667	stim	62		2	ambiguous	ambiguous	preferred	600.0	30.0		28.592631799983792	0.034071599948219955
10	24.55199339997489	stim	63		2	ambiguous	ambiguous	preferred	600.0	30.0		28.626703399932012	0.03335219994187355
10	24.585345599916764	stim	64		2	ambiguous	ambiguous	preferred	600.0	30.0		28.660055599873886	0.03332850011065602
10	24.61867410002742	stim	65		2	ambiguous	ambiguous	preferred	600.0	30.0		28.69338409998454	0.03335819998756051
10	24.65203230001498	stim	66		2	ambiguous	ambiguous	preferred	600.0	30.0		28.726742299972102	0.03419869998469949
10	24.68623099999968	stim	67		2	ambiguous	ambiguous	preferred	600.0	30.0		28.7609409999568	0.033453100011684
10	24.719684100011364	stim	68		2	ambiguous	ambiguous	preferred	600.0	30.0		28.794394099968486	0.0333284999942407
10	24.753012600005604	stim	69		2	ambiguous	ambiguous	preferred	600.0	30.0		28.827722599962726	0.03358899999875575
10	24.78660160000436	stim	70		2	ambiguous	ambiguous	preferred	600.0	30.0		28.861311599961482	0.03332149994093925
10	24.8199230999453	stim	71		2	ambiguous	ambiguous	preferred	600.0	30.0		28.89463309990242	0.033643500064499676
10	24.8535666000098	stim	72		2	ambiguous	ambiguous	preferred	600.0	30.0		28.92827659996692	0.033824299927800894
10	24.8873908999376	stim	73		2	ambiguous	ambiguous	preferred	600.0	30.0		28.962100899894722	0.03336250002030283
10	24.920753399957903	stim	74		2	ambiguous	ambiguous	preferred	600.0	30.0		28.995463399915025	0.033606400014832616
10	24.954359799972735	stim	75		2	ambiguous	ambiguous	preferred	600.0	30.0		29.029069799929857	0.03337329998612404
10	24.98773309995886	stim	76		2	ambiguous	ambiguous	preferred	600.0	30.0		29.06244309991598	0.03392850002273917
10	25.0216615999816	stim	77		2	ambiguous	ambiguous	preferred	600.0	30.0		29.09637159993872	0.033547200029715896
10	25.055208800011314	stim	78		2	ambiguous	ambiguous	preferred	600.0	30.0		29.129918799968436	0.033103799913078547
10	25.088312599924393	stim	79		2	ambiguous	ambiguous	preferred	600.0	30.0		29.163022599881515	0.03401950001716614
10	25.12233209994156	stim	80		2	ambiguous	ambiguous	preferred	600.0	30.0		29.19704209989868	0.03389880002941936
10	25.15623089997098	stim	81		2	ambiguous	ambiguous	preferred	600.0	30.0		29.2309408999281	0.03397300001233816
10	25.190203899983317	stim	82		2	ambiguous	ambiguous	preferred	600.0	30.0		29.26491389994044	0.033434399985708296
10	25.223638299969025	stim	83		2	ambiguous	ambiguous	preferred	600.0	30.0		29.298348299926147	0.033542699995450675
10	25.257180999964476	stim	84		2	ambiguous	ambiguous	preferred	600.0	30.0		29.331890999921598	0.033468700014054775
10	25.29064969997853	stim	85		2	ambiguous	ambiguous	preferred	600.0	30.0		29.365359699935652	0.033338099950924516
10	25.323987799929455	stim	86		2	ambiguous	ambiguous	preferred	600.0	30.0		29.398697799886577	0.033325200085528195
10	25.357313000014983	stim	87		2	ambiguous	ambiguous	preferred	600.0	30.0		29.432022999972105	0.033347199903801084
10	25.390660199918784	stim	88		2	ambiguous	ambiguous	preferred	600.0	30.0		29.465370199875906	0.033335500047542155
10	25.423995699966326	stim	89		2	ambiguous	ambiguous	preferred	600.0	30.0		29.49870569992345	0.03381439996883273
10	25.45781009993516	stim	90		2	ambiguous	ambiguous	preferred	600.0	30.0		29.53252009989228	0.03344760008621961
10	25.49125770002138	stim	91		2	ambiguous	ambiguous	preferred	600.0	30.0		29.5659676999785	0.033781199948862195
10	25.52503889997024	stim	92		2	ambiguous	ambiguous	preferred	600.0	30.0		29.599748899927363	0.03343820001464337
10	25.558477099984884	stim	93		2	ambiguous	ambiguous	preferred	600.0	30.0		29.633187099942006	0.033448099973611534
10	25.591925199958496	stim	94		2	ambiguous	ambiguous	preferred	600.0	30.0		29.666635199915618	0.03380289999768138
10	25.625728099956177	stim	95		2	ambiguous	ambiguous	preferred	600.0	30.0		29.7004380999133	0.03319129999727011
10	25.658919399953447	stim	96		2	ambiguous	ambiguous	preferred	600.0	30.0		29.73362939991057	0.03316610003821552
10	25.692085499991663	stim	97		2	ambiguous	ambiguous	preferred	600.0	30.0		29.766795499948785	0.0333408999722451
10	25.725426399963908	stim	98		2	ambiguous	ambiguous	preferred	600.0	30.0		29.80013639992103	0.033342699985951185
10	25.75876909994986	stim	99		2	ambiguous	ambiguous	preferred	600.0	30.0		29.83347909990698	0.03374380001332611
10	25.792512899963185	stim	100		2	ambiguous	ambiguous	preferred	600.0	30.0		29.867222899920307	0.0329436999745667
10	25.825456599937752	stim	101		2	ambiguous	ambiguous	preferred	600.0	30.0		29.900166599894874	0.03360239998437464
10	25.859058999922127	stim	102		2	ambiguous	ambiguous	preferred	600.0	30.0		29.93376899987925	0.033326700096949935
10	25.892385700019076	stim	103		2	ambiguous	ambiguous	preferred	600.0	30.0		29.9670956999762	0.03304079989902675
10	25.925426499918103	stim	104		2	ambiguous	ambiguous	preferred	600.0	30.0		30.000136499875225	0.033535400056280196
10	25.958961899974383	stim	105		2	ambiguous	ambiguous	preferred	600.0	30.0		30.033671899931505	0.03322149999439716
10	25.99218339996878	stim	106		2	ambiguous	ambiguous	preferred	600.0	30.0		30.066893399925902	0.03385180002078414
10	26.026035199989565	stim	107		2	ambiguous	ambiguous	preferred	600.0	30.0		30.100745199946687	0.05000859999563545
10	26.0760437999852	stim	108		2	ambiguous	ambiguous	preferred	600.0	30.0		30.150753799942322	0.03319039999041706
10	26.109234199975617	stim	109		2	ambiguous	ambiguous	preferred	600.0	30.0		30.18394419993274	0.03417769994121045
10	26.143411899916828	stim	110		2	ambiguous	ambiguous	preferred	600.0	30.0		30.21812189987395	0.03315400006249547
10	26.176565899979323	stim	111		2	ambiguous	ambiguous	preferred	600.0	30.0		30.251275899936445	0.03359060001093894
10	26.210156499990262	stim	112		2	ambiguous	ambiguous	preferred	600.0	30.0		30.284866499947384	0.050146900000981987
10	26.260303399991244	stim	113		2	ambiguous	ambiguous	preferred	600.0	30.0		30.335013399948366	0.04117059998679906
10	26.301473999978043	stim	114		2	ambiguous	ambiguous	preferred	600.0	30.0		30.376183999935165	0.04154560004826635
10	26.34301960002631	stim	115		2	ambiguous	ambiguous	preferred	600.0	30.0		30.41772959998343	0.0334459999576211
10	26.37646559998393	stim	116		2	ambiguous	ambiguous	preferred	600.0	30.0		30.451175599941052	0.03334830002859235
10	26.409813900012523	stim	117		2	ambiguous	ambiguous	preferred	600.0	30.0		30.484523899969645	0.033554399968124926
10	26.443368299980648	stim	118		2	ambiguous	ambiguous	preferred	600.0	30.0		30.51807829993777	0.03343229996971786
10	26.476800599950366	stim	119		2	ambiguous	ambiguous	preferred	600.0	30.0		30.551510599907488	0.03336570004466921
10	26.510166299995035	stim	120		2	ambiguous	ambiguous	preferred	600.0	30.0		30.584876299952157	0.033559200004674494
10	26.54372549999971	stim	121		2	ambiguous	ambiguous	preferred	600.0	30.0		30.61843549995683	0.033446399960666895
10	26.577171899960376	stim	122		2	ambiguous	ambiguous	preferred	600.0	30.0		30.6518818999175	0.033418199978768826
10	26.610590099939145	stim	123		2	ambiguous	ambiguous	preferred	600.0	30.0		30.685300099896267	0.03338040004018694
10	26.643970499979332	stim	124		2	ambiguous	ambiguous	preferred	600.0	30.0		30.718680499936454	0.033298399997875094
10	26.677268899977207	stim	125		2	ambiguous	ambiguous	preferred	600.0	30.0		30.75197889993433	0.03388819994870573
10	26.711157099925913	stim	126		2	ambiguous	ambiguous	preferred	600.0	30.0		30.785867099883035	0.03306960000190884
10	26.74422669992782	stim	127		2	ambiguous	ambiguous	preferred	600.0	30.0		30.818936699884944	0.03356270003132522
10	26.777789399959147	stim	128		2	ambiguous	ambiguous	preferred	600.0	30.0		30.85249939991627	0.033216699957847595
10	26.811006099916995	stim	129		2	ambiguous	ambiguous	preferred	600.0	30.0		30.885716099874116	0.03368720004800707
10	26.844693299965	stim	130		2	ambiguous	ambiguous	preferred	600.0	30.0		30.919403299922124	0.03334660001564771
10	26.87803989998065	stim	131		2	ambiguous	ambiguous	preferred	600.0	30.0		30.95274989993777	0.03362070000730455
10	26.911660599987954	stim	132		2	ambiguous	ambiguous	preferred	600.0	30.0		30.986370599945076	0.03356909996364266
10	26.945229699951597	stim	133		2	ambiguous	ambiguous	preferred	600.0	30.0		31.01993969990872	0.03474420006386936
10	26.979973900015466	stim	134		2	ambiguous	ambiguous	preferred	600.0	30.0		31.054683899972588	0.033418099978007376
10	27.013391999993473	stim	135		2	ambiguous	ambiguous	preferred	600.0	30.0		31.088101999950595	0.03337009996175766
10	27.04676209995523	stim	136		2	ambiguous	ambiguous	preferred	600.0	30.0		31.121472099912353	0.03356770006939769
10	27.08032980002463	stim	137		2	ambiguous	ambiguous	preferred	600.0	30.0		31.15503979998175	0.033609199919737875
10	27.113938999944367	stim	138		2	ambiguous	ambiguous	preferred	600.0	30.0		31.18864899990149	0.03344909998122603
10	27.147388099925593	stim	139		2	ambiguous	ambiguous	preferred	600.0	30.0		31.222098099882714	0.0334533000132069
10	27.1808413999388	stim	140		2	ambiguous	ambiguous	preferred	600.0	30.0		31.25555139989592	0.03303240006789565
10	27.213873800006695	stim	141		2	ambiguous	ambiguous	preferred	600.0	30.0		31.288583799963817	0.033364999922923744
10	27.24723879992962	stim	142		2	ambiguous	ambiguous	preferred	600.0	30.0		31.32194879988674	0.0334417000412941
10	27.280680499970913	stim	143		2	ambiguous	ambiguous	preferred	600.0	30.0		31.355390499928035	0.03392830002121627
10	27.31460879999213	stim	144		2	ambiguous	ambiguous	preferred	600.0	30.0		31.38931879994925	0.04931379994377494
10	27.363922599935904	stim	145		2	ambiguous	ambiguous	preferred	600.0	30.0		31.438632599893026	0.033684900030493736
10	27.397607499966398	stim	146		2	ambiguous	ambiguous	preferred	600.0	30.0		31.47231749992352	0.03301050001755357
10	27.43061799998395	stim	147		2	ambiguous	ambiguous	preferred	600.0	30.0		31.505327999941073	0.033569599967449903
10	27.4641875999514	stim	148		2	ambiguous	ambiguous	preferred	600.0	30.0		31.538897599908523	0.03399700007867068
10	27.498184600030072	stim	149		2	ambiguous	ambiguous	preferred	600.0	30.0		31.572894599987194	0.0338002999778837
10	27.531984900007956	stim	150		2	ambiguous	ambiguous	preferred	600.0	30.0		31.606694899965078	0.03285199997480959
10	27.564836899982765	stim	151		2	ambiguous	ambiguous	preferred	600.0	30.0		31.639546899939887	0.03331239998806268
10	27.598149299970828	stim	152		2	ambiguous	ambiguous	preferred	600.0	30.0		31.67285929992795	0.034321999992243946
10	27.632471299963072	stim	153		2	ambiguous	ambiguous	preferred	600.0	30.0		31.707181299920194	0.033150300034321845
10	27.665621599997394	stim	154		2	ambiguous	ambiguous	preferred	600.0	30.0		31.740331599954516	0.033427099930122495
10	27.699048699927516	stim	155		2	ambiguous	ambiguous	preferred	600.0	30.0		31.773758699884638	0.033440500032156706
10	27.732489199959673	stim	156		2	ambiguous	ambiguous	preferred	600.0	30.0		31.807199199916795	0.033573900000192225
10	27.766063099959865	stim	157		2	ambiguous	ambiguous	preferred	600.0	30.0		31.840773099916987	0.03329309995751828
10	27.799356199917383	stim	158		2	ambiguous	ambiguous	preferred	600.0	30.0		31.874066199874505	0.03370660007931292
10	27.833062799996696	stim	159		2	ambiguous	ambiguous	preferred	600.0	30.0		31.90777279995382	0.033759000012651086
10	27.866821800009347	stim	160		2	ambiguous	ambiguous	preferred	600.0	30.0		31.94153179996647	0.03354149998631328
10	27.90036329999566	stim	161		2	ambiguous	ambiguous	preferred	600.0	30.0		31.975073299952783	0.03312409995123744
10	27.933487399946898	stim	162		2	ambiguous	ambiguous	preferred	600.0	30.0		32.00819739990402	0.033379900036379695
10	27.966867299983278	stim	163		2	ambiguous	ambiguous	preferred	600.0	30.0		32.0415772999404	0.03373010002542287
10	28.0005974000087	stim	164		2	ambiguous	ambiguous	preferred	600.0	30.0		32.07530739996582	0.03375559998676181
10	28.034352999995463	stim	165		2	ambiguous	ambiguous	preferred	600.0	30.0		32.109062999952585	0.033350199926644564
10	28.067703199922107	stim	166		2	ambiguous	ambiguous	preferred	600.0	30.0		32.14241319987923	0.033874700078740716
10	28.101577900000848	stim	167		2	ambiguous	ambiguous	preferred	600.0	30.0		32.17628789995797	0.03314600000157952
10	28.134723900002427	stim	168		2	ambiguous	ambiguous	preferred	600.0	30.0		32.20943389995955	0.03339250001590699
10	28.168116400018334	stim	169		2	ambiguous	ambiguous	preferred	600.0	30.0		32.242826399975456	0.033607899909839034
10	28.201724299928173	stim	170		2	ambiguous	ambiguous	preferred	600.0	30.0		32.276434299885295	0.033333800034597516
10	28.23505809996277	stim	171		2	ambiguous	ambiguous	preferred	600.0	30.0		32.30976809991989	0.03330390003975481
10	28.268362000002526	stim	172		2	ambiguous	ambiguous	preferred	600.0	30.0		32.34307199995965	0.033770899986848235
10	28.302132899989374	stim	173		2	ambiguous	ambiguous	preferred	600.0	30.0		32.376842899946496	0.03323109995108098
10	28.335363999940455	stim	174		2	ambiguous	ambiguous	preferred	600.0	30.0		32.41007399989758	0.0333169000223279
10	28.368680899962783	stim	175		2	ambiguous	ambiguous	preferred	600.0	30.0		32.443390899919905	0.033688000054098666
10	28.40236890001688	stim	176		2	ambiguous	ambiguous	preferred	600.0	30.0		32.477078899974	0.033287699916400015
10	28.43565659993328	stim	177		2	ambiguous	ambiguous	preferred	600.0	30.0		32.5103665998904	0.03355150006245822
10	28.46920809999574	stim	178		2	ambiguous	ambiguous	preferred	600.0	30.0		32.54391809995286	0.0334533000132069
10	28.502661400008947	stim	179		2	ambiguous	ambiguous	preferred	600.0	30.0		32.57737139996607	0.03334650001488626
10	28.536007900023833	stim	180		2	ambiguous	ambiguous	preferred	600.0	30.0		32.610717899980955	0.033238599891774356
10	28.569246499915607	stim	181		2	ambiguous	ambiguous	preferred	600.0	30.0		32.64395649987273	0.03345470002386719
10	28.602701199939474	stim	182		2	ambiguous	ambiguous	preferred	600.0	30.0		32.677411199896596	0.0501713000703603
10	28.652872500009835	stim	183		2	ambiguous	ambiguous	preferred	600.0	30.0		32.72758249996696	0.03392770001664758
10	28.686800200026482	stim	184		2	ambiguous	ambiguous	preferred	600.0	30.0		32.761510199983604	0.03355809999629855
10	28.72035830002278	stim	185		2	ambiguous	ambiguous	preferred	600.0	30.0		32.7950682999799	0.03358449996449053
10	28.75394279998727	stim	186		2	ambiguous	ambiguous	preferred	600.0	30.0		32.82865279994439	0.03288259997498244
10	28.786825399962254	stim	187		2	ambiguous	ambiguous	preferred	600.0	30.0		32.861535399919376	0.03332379995845258
10	28.820149199920706	stim	188		2	ambiguous	ambiguous	preferred	600.0	30.0		32.89485919987783	0.03333140001632273
10	28.85348059993703	stim	189		2	ambiguous	ambiguous	preferred	600.0	30.0		32.92819059989415	0.033643800066784024
10	28.887124400003813	stim	190		2	ambiguous	ambiguous	preferred	600.0	30.0		32.961834399960935	0.03392830002121627
10	28.92105270002503	stim	191		2	ambiguous	ambiguous	preferred	600.0	30.0		32.99576269998215	0.033524899976328015
10	28.954577600001357	stim	192		2	ambiguous	ambiguous	preferred	600.0	30.0		33.02928759995848	0.03363520000129938
10	28.988212800002657	stim	193		2	ambiguous	ambiguous	preferred	600.0	30.0		33.06292279995978	0.03412159997969866
10	29.022334399982356	stim	194		2	ambiguous	ambiguous	preferred	600.0	30.0		33.09704439993948	0.033751499955542386
10	29.056085899937898	stim	195		2	ambiguous	ambiguous	preferred	600.0	30.0		33.13079589989502	0.03321050002705306
10	29.08929639996495	stim	196		2	ambiguous	ambiguous	preferred	600.0	30.0		33.16400639992207	0.0335588000016287
10	29.12285519996658	stim	197		2	ambiguous	ambiguous	preferred	600.0	30.0		33.1975651999237	0.03317790001165122
10	29.15603309997823	stim	198		2	ambiguous	ambiguous	preferred	600.0	30.0		33.23074309993535	0.033317800029180944
10	29.189350900007412	stim	199		2	ambiguous	ambiguous	preferred	600.0	30.0		33.264060899964534	0.033822499914094806
10	29.223173399921507	stim	200		2	ambiguous	ambiguous	preferred	600.0	30.0		33.29788339987863	0.03331389999948442
10	29.25648729992099	stim	201		2	ambiguous	ambiguous	preferred	600.0	30.0		33.33119729987811	0.03349930001422763
10	29.28998659993522	stim	202		2	ambiguous	ambiguous	preferred	600.0	30.0		33.36469659989234	0.03333760006353259
10	29.32332419999875	stim	203		2	ambiguous	ambiguous	preferred	600.0	30.0		33.39803419995587	0.033731000032275915
10	29.357055200031027	stim	204		2	ambiguous	ambiguous	preferred	600.0	30.0		33.43176519998815	0.033809099928475916
10	29.390864299959503	stim	205		2	ambiguous	ambiguous	preferred	600.0	30.0		33.465574299916625	0.049907300039194524
10	29.440771599998698	stim	206		2	ambiguous	ambiguous	preferred	600.0	30.0		33.51548159995582	0.035981399938464165
10	29.476752999937162	stim	207		2	ambiguous	ambiguous	preferred	600.0	30.0		33.551462999894284	0.047269999980926514
10	29.52402299991809	stim	208		2	ambiguous	ambiguous	preferred	600.0	30.0		33.59873299987521	0.03337900002952665
10	29.557401999947615	stim	209		2	ambiguous	ambiguous	preferred	600.0	30.0		33.63211199990474	0.03309320006519556
10	29.59049520001281	stim	210		2	ambiguous	ambiguous	preferred	600.0	30.0		33.66520519996993	0.03386319999117404
10	29.624358400003985	stim	211		2	ambiguous	ambiguous	preferred	600.0	30.0		33.69906839996111	0.03394390002358705
10	29.65830230002757	stim	212		2	ambiguous	ambiguous	preferred	600.0	30.0		33.73301229998469	0.03399689996149391
10	29.692299199989066	stim	213		2	ambiguous	ambiguous	preferred	600.0	30.0		33.76700919994619	0.03339829994365573
10	29.72569749993272	stim	214		2	ambiguous	ambiguous	preferred	600.0	30.0		33.80040749988984	0.03358470008242875
10	29.75928220001515	stim	215		2	ambiguous	ambiguous	preferred	600.0	30.0		33.83399219997227	0.03341619996353984
10	29.79269839997869	stim	216		2	ambiguous	ambiguous	preferred	600.0	30.0		33.86740839993581	0.03353769995737821
10	29.826236099936068	stim	217		2	ambiguous	ambiguous	preferred	600.0	30.0		33.90094609989319	0.033369500073604286
10	29.859605600009672	stim	218		2	ambiguous	ambiguous	preferred	600.0	30.0		33.934315599966794	0.03354049997869879
10	29.89314609998837	stim	219		2	ambiguous	ambiguous	preferred	600.0	30.0		33.96785609994549	0.0334413000382483
10	29.92658740002662	stim	220		2	ambiguous	ambiguous	preferred	600.0	30.0		34.00129739998374	0.03343129996210337
10	29.960018699988723	stim	221		2	ambiguous	ambiguous	preferred	600.0	30.0		34.034728699945845	0.03315060003660619
10	29.99316930002533	stim	222		2	ambiguous	ambiguous	preferred	600.0	30.0		34.06787929998245	0.03378619998693466
10	30.026955500012264	stim	223		2	ambiguous	ambiguous	preferred	600.0	30.0		34.101665499969386	0.033344099996611476
10	30.060299600008875	stim	224		2	ambiguous	ambiguous	preferred	600.0	30.0		34.135009599966	0.0333286999957636
10	30.09362830000464	stim	225		2	ambiguous	ambiguous	preferred	600.0	30.0		34.16833829996176	0.03342899994459003
10	30.12705729994923	stim	226		2	ambiguous	ambiguous	preferred	600.0	30.0		34.20176729990635	0.03370350005570799
10	30.160760800004937	stim	227		2	ambiguous	ambiguous	preferred	600.0	30.0		34.23547079996206	0.033342899987474084
10	30.19410369999241	stim	228		2	ambiguous	ambiguous	preferred	600.0	30.0		34.26881369994953	0.03358960000332445
10	30.227693299995735	stim	229		2	ambiguous	ambiguous	preferred	600.0	30.0		34.30240329995286	0.033347300020977855
10	30.261040600016713	stim	230		2	ambiguous	ambiguous	preferred	600.0	30.0		34.335750599973835	0.033486099913716316
10	30.29452669993043	stim	231		2	ambiguous	ambiguous	preferred	600.0	30.0		34.36923669988755	0.03356000001076609
10	30.328086699941196	stim	232		2	ambiguous	ambiguous	preferred	600.0	30.0		34.40279669989832	0.03322640003170818
10	30.361313099972904	stim	233		2	ambiguous	ambiguous	preferred	600.0	30.0		34.436023099930026	0.03375119995325804
10	30.39506429992616	stim	234		2	ambiguous	ambiguous	preferred	600.0	30.0		34.469774299883284	0.03539030009415001
10	30.43045460002031	stim	235		2	ambiguous	ambiguous	preferred	600.0	30.0		34.505164599977434	0.04945789999328554
10	30.479912500013597	stim	236		2	ambiguous	ambiguous	preferred	600.0	30.0		34.55462249997072	0.03314369998406619
10	30.513056199997663	stim	237		2	ambiguous	ambiguous	preferred	600.0	30.0		34.587766199954785	0.03201979992445558
10	30.54507599992212	stim	238		2	ambiguous	ambiguous	preferred	600.0	30.0		34.61978599987924	0.03465210006106645
10	30.579728099983186	stim	239		2	ambiguous	ambiguous	preferred	600.0	30.0		34.65443809994031	0.03340870002284646
10	30.613136800006032	stim	240		2	ambiguous	ambiguous	preferred	600.0	30.0		34.687846799963154	0.03345340001396835
10	30.64659020002	stim	241		2	ambiguous	ambiguous	preferred	600.0	30.0		34.72130019997712	0.03334939992055297
10	30.679939599940553	stim	242		2	ambiguous	ambiguous	preferred	600.0	30.0		34.754649599897675	0.03345900005660951
10	30.713398599997163	stim	243		2	ambiguous	ambiguous	preferred	600.0	30.0		34.788108599954285	0.03324709995649755
10	30.74664569995366	stim	244		2	ambiguous	ambiguous	preferred	600.0	30.0		34.82135569991078	0.03350480005610734
10	30.780150500009768	stim	245		2	ambiguous	ambiguous	preferred	600.0	30.0		34.85486049996689	0.03313160000834614
10	30.813282100018114	stim	246		2	ambiguous	ambiguous	preferred	600.0	30.0		34.887992099975236	0.03333879995625466
10	30.84662089997437	stim	247		2	ambiguous	ambiguous	preferred	600.0	30.0		34.92133089993149	0.033326599979773164
10	30.87994749995414	stim	248		2	ambiguous	ambiguous	preferred	600.0	30.0		34.954657499911264	0.033735700068064034
10	30.913683200022206	stim	249		2	ambiguous	ambiguous	preferred	600.0	30.0		34.98839319997933	0.034084999933838844
10	30.947768199956045	stim	250		2	ambiguous	ambiguous	preferred	600.0	30.0		35.02247819991317	0.03300559998024255
10	30.980773799936287	stim	251		2	ambiguous	ambiguous	preferred	600.0	30.0		35.05548379989341	0.0334104000357911
10	31.014184199972078	stim	252		2	ambiguous	ambiguous	preferred	600.0	30.0		35.0888941999292	0.03373899997677654
10	31.047923199948855	stim	253		2	ambiguous	ambiguous	preferred	600.0	30.0		35.12263319990598	0.03391350002493709
10	31.081836699973792	stim	254		2	ambiguous	ambiguous	preferred	600.0	30.0		35.156546699930914	0.03345190000254661
10	31.11528859997634	stim	255		2	ambiguous	ambiguous	preferred	600.0	30.0		35.18999859993346	0.03361949999816716
10	31.148908099974506	stim	256		2	ambiguous	ambiguous	preferred	600.0	30.0		35.22361809993163	0.0329434999730438
10	31.18185159994755	stim	257		2	ambiguous	ambiguous	preferred	600.0	30.0		35.25656159990467	0.03377920005004853
10	31.215630799997598	stim	258		2	ambiguous	ambiguous	preferred	600.0	30.0		35.29034079995472	0.033898200024850667
10	31.24952900002245	stim	259		2	ambiguous	ambiguous	preferred	600.0	30.0		35.32423899997957	0.033918799948878586
10	31.283447799971327	stim	260		2	ambiguous	ambiguous	preferred	600.0	30.0		35.35815779992845	0.034193200059235096
10	31.317641000030562	stim	261		2	ambiguous	ambiguous	preferred	600.0	30.0		35.392350999987684	0.03340879990719259
10	31.351049799937755	stim	262		2	ambiguous	ambiguous	preferred	600.0	30.0		35.42575979989488	0.033301100018434227
10	31.38435089995619	stim	263		2	ambiguous	ambiguous	preferred	600.0	30.0		35.45906089991331	0.033445000066421926
10	31.41779590002261	stim	264		2	ambiguous	ambiguous	preferred	600.0	30.0		35.49250589997973	0.03322159999515861
10	31.45101750001777	stim	265		2	ambiguous	ambiguous	preferred	600.0	30.0		35.52572749997489	0.033756199991330504
10	31.4847737000091	stim	266		2	ambiguous	ambiguous	preferred	600.0	30.0		35.55948369996622	0.033669799915514886
10	31.518443499924615	stim	267		2	ambiguous	ambiguous	preferred	600.0	30.0		35.59315349988174	0.03292930009774864
10	31.551372800022364	stim	268		2	ambiguous	ambiguous	preferred	600.0	30.0		35.626082799979486	0.033671499928459525
10	31.585044299950823	stim	269		2	ambiguous	ambiguous	preferred	600.0	30.0		35.659754299907945	0.03340139996726066
10	31.618445699918084	stim	270		2	ambiguous	ambiguous	preferred	600.0	30.0		35.693155699875206	0.03343120007775724
10	31.65187689999584	stim	271		2	ambiguous	ambiguous	preferred	600.0	30.0		35.72658689995296	0.033434699987992644
10	31.685311599983834	stim	272		2	ambiguous	ambiguous	preferred	600.0	30.0		35.760021599940956	0.03360620001330972
10	31.718917799997143	stim	273		2	ambiguous	ambiguous	preferred	600.0	30.0		35.793627799954265	0.03365739993751049
10	31.752575199934654	stim	274		2	ambiguous	ambiguous	preferred	600.0	30.0		35.827285199891776	0.03277040005195886
10	31.785345599986613	stim	275		2	ambiguous	ambiguous	preferred	600.0	30.0		35.860055599943735	0.033733899937942624
10	31.819079499924555	stim	276		2	ambiguous	ambiguous	preferred	600.0	30.0		35.89378949988168	0.033339800080284476
10	31.85241930000484	stim	277		2	ambiguous	ambiguous	preferred	600.0	30.0		35.92712929996196	0.03355699998792261
10	31.885976299992763	stim	278		2	ambiguous	ambiguous	preferred	600.0	30.0		35.960686299949884	0.033520399942062795
10	31.919496699934825	stim	279		2	ambiguous	ambiguous	preferred	600.0	30.0		35.99420669989195	0.03350220003630966
10	31.952998899971135	stim	280		2	ambiguous	ambiguous	preferred	600.0	30.0		36.02770889992826	0.033500000019557774
10	31.986498899990693	stim	281		2	ambiguous	ambiguous	preferred	600.0	30.0		36.061208899947815	0.03335239994339645
10	32.01985129993409	stim	282		2	ambiguous	ambiguous	preferred	600.0	30.0		36.09456129989121	0.0333169000223279
10	32.05316819995642	stim	283		2	ambiguous	ambiguous	preferred	600.0	30.0		36.12787819991354	0.033596300054341555
10	32.08676450001076	stim	284		2	ambiguous	ambiguous	preferred	600.0	30.0		36.16147449996788	0.03390169993508607
10	32.120666199945845	stim	285		2	ambiguous	ambiguous	preferred	600.0	30.0		36.19537619990297	0.03337169997394085
10	32.154037899919786	stim	286		2	ambiguous	ambiguous	preferred	600.0	30.0		36.22874789987691	0.03314930002670735
10	32.18718719994649	stim	287		2	ambiguous	ambiguous	preferred	600.0	30.0		36.261897199903615	0.034061399986967444
10	32.22124859993346	stim	288		2	ambiguous	ambiguous	preferred	600.0	30.0		36.29595859989058	0.03329880000092089
10	32.25454739993438	stim	289		2	ambiguous	ambiguous	preferred	600.0	30.0		36.3292573998915	0.03353290003724396
10	32.288080299971625	stim	290		2	ambiguous	ambiguous	preferred	600.0	30.0		36.36279029992875	0.03337109996937215
10	32.321451399941	stim	291		2	ambiguous	ambiguous	preferred	600.0	30.0		36.39616139989812	0.03312719997484237
10	32.35457859991584	stim	292		2	ambiguous	ambiguous	preferred	600.0	30.0		36.42928859987296	0.03382970008533448
10	32.388408300001174	stim	293		2	ambiguous	ambiguous	preferred	600.0	30.0		36.463118299958296	0.033675999962724745
10	32.4220842999639	stim	294		2	ambiguous	ambiguous	preferred	600.0	30.0		36.49679429992102	0.033651100005954504
10	32.45573539996985	stim	295		2	ambiguous	ambiguous	preferred	600.0	30.0		36.530445399926975	0.03346379997674376
10	32.4891991999466	stim	296		2	ambiguous	ambiguous	preferred	600.0	30.0		36.56390919990372	0.0340485000051558
10	32.52324769995175	stim	297		2	ambiguous	ambiguous	preferred	600.0	30.0		36.597957699908875	0.03301220003049821
10	32.55625989998225	stim	298		2	ambiguous	ambiguous	preferred	600.0	30.0		36.63096989993937	0.034031699993647635
10	32.5902915999759	stim	299		2	ambiguous	ambiguous	preferred	600.0	30.0		36.66500159993302	0.033931000041775405
10	32.624222600017674	stim	300		2	ambiguous	ambiguous	preferred	600.0	30.0		36.698932599974796	0.033304199925623834
10	32.6575267999433	stim	301		2	ambiguous	ambiguous	preferred	600.0	30.0		36.73223679990042	0.03350480005610734
10	32.691031599999405	stim	302		2	ambiguous	ambiguous	preferred	600.0	30.0		36.76574159995653	0.03351069998461753
10	32.72454229998402	stim	303		2	ambiguous	ambiguous	preferred	600.0	30.0		36.799252299941145	0.033145800000056624
10	32.75768809998408	stim	304		2	ambiguous	ambiguous	preferred	600.0	30.0		36.8323980999412	0.03335789998527616
10	32.791045999969356	stim	305		2	ambiguous	ambiguous	preferred	600.0	30.0		36.86575599992648	0.033341099973767996
10	32.824387099943124	stim	306		2	ambiguous	ambiguous	preferred	600.0	30.0		36.899097099900246	0.033301400020718575
10	32.85768849996384	stim	307		2	ambiguous	ambiguous	preferred	600.0	30.0		36.932398499920964	0.03335100004915148
10	32.891039500012994	stim	308		2	ambiguous	ambiguous	preferred	600.0	30.0		36.965749499970116	0.03368849994149059
10	32.924727999954484	stim	309		2	ambiguous	ambiguous	preferred	600.0	30.0		36.999437999911606	0.033335300046019256
10	32.958063300000504	stim	310		2	ambiguous	ambiguous	preferred	600.0	30.0		37.032773299957626	0.03320730000268668
10	32.99127060000319	stim	311		2	ambiguous	ambiguous	preferred	600.0	30.0		37.06598059996031	0.03350889997091144
10	33.0247794999741	stim	312		2	ambiguous	ambiguous	preferred	600.0	30.0		37.099489499931224	0.0334533000132069
10	33.05823279998731	stim	313		2	ambiguous	ambiguous	preferred	600.0	30.0		37.13294279994443	0.03328740003053099
10	33.09152020001784	stim	314		2	ambiguous	ambiguous	preferred	600.0	30.0		37.16623019997496	0.034003500011749566
10	33.12552370002959	stim	315		2	ambiguous	ambiguous	preferred	600.0	30.0		37.20023369998671	0.0335191999329254
10	33.159042899962515	stim	316		2	ambiguous	ambiguous	preferred	600.0	30.0		37.23375289991964	0.033116300008259714
10	33.192159199970774	stim	317		2	ambiguous	ambiguous	preferred	600.0	30.0		37.266869199927896	0.03329179994761944
10	33.225450999918394	stim	318		2	ambiguous	ambiguous	preferred	600.0	30.0		37.300160999875516	0.03350800008047372
10	33.25895899999887	stim	319		2	ambiguous	ambiguous	preferred	600.0	30.0		37.33366899995599	0.033984199981205165
10	33.29294319998007	stim	320		2	ambiguous	ambiguous	preferred	600.0	30.0		37.367653199937195	0.033519200049340725
10	33.32646240002941	stim	321		2	ambiguous	ambiguous	preferred	600.0	30.0		37.401172399986535	0.033213899936527014
10	33.35967629996594	stim	322		2	ambiguous	ambiguous	preferred	600.0	30.0		37.43438629992306	0.033136800047941506
10	33.39281310001388	stim	323		2	ambiguous	ambiguous	preferred	600.0	30.0		37.467523099971004	0.033628699951805174
10	33.42644179996569	stim	324		2	ambiguous	ambiguous	preferred	600.0	30.0		37.50115179992281	0.0332786999642849
10	33.45972049992997	stim	325		2	ambiguous	ambiguous	preferred	600.0	30.0		37.534430499887094	0.03357020008843392
10	33.493290700018406	stim	326		2	ambiguous	ambiguous	preferred	600.0	30.0		37.56800069997553	0.03336859995033592
10	33.52665929996874	stim	327		2	ambiguous	ambiguous	preferred	600.0	30.0		37.601369299925864	0.03364429995417595
10	33.56030359992292	stim	328		2	ambiguous	ambiguous	preferred	600.0	30.0		37.63501359988004	0.033263100078329444
10	33.59356670000125	stim	329		2	ambiguous	ambiguous	preferred	600.0	30.0		37.66827669995837	0.033309799968265
10	33.62687649996951	stim	330		2	ambiguous	ambiguous	preferred	600.0	30.0		37.701586499926634	0.03370589995756745
10	33.66058239992708	stim	331		2	ambiguous	ambiguous	preferred	600.0	30.0		37.7352923998842	0.033338600071147084
10	33.69392099999823	stim	332		2	ambiguous	ambiguous	preferred	600.0	30.0		37.76863099995535	0.03354229999240488
10	33.72746329999063	stim	333		2	ambiguous	ambiguous	preferred	600.0	30.0		37.80217329994775	0.03343099995981902
10	33.76089429995045	stim	334		2	ambiguous	ambiguous	preferred	600.0	30.0		37.83560429990757	0.03356020001228899
10	33.79445449996274	stim	335		2	ambiguous	ambiguous	preferred	600.0	30.0		37.86916449991986	0.033225900027900934
10	33.82768039999064	stim	336		2	ambiguous	ambiguous	preferred	600.0	30.0		37.90239039994776	0.03354309999849647
10	33.86122349998914	stim	337		2	ambiguous	ambiguous	preferred	600.0	30.0		37.93593349994626	0.035169499926269054
10	33.896392999915406	stim	338		2	ambiguous	ambiguous	preferred	600.0	30.0		37.97110299987253	0.033541700104251504
10	33.92993470001966	stim	339		2	ambiguous	ambiguous	preferred	600.0	30.0		38.00464469997678	0.03374189999885857
10	33.963676600018516	stim	340		2	ambiguous	ambiguous	preferred	600.0	30.0		38.03838659997564	0.03285419999156147
10	33.99653080001008	stim	341		2	ambiguous	ambiguous	preferred	600.0	30.0		38.0712407999672	0.0333211999386549
10	34.02985199994873	stim	342		2	ambiguous	ambiguous	preferred	600.0	30.0		38.104561999905854	0.03334299998823553
10	34.06319499993697	stim	343		2	ambiguous	ambiguous	preferred	600.0	30.0		38.13790499989409	0.03337150008883327
10	34.0965665000258	stim	344		2	ambiguous	ambiguous	preferred	600.0	30.0		38.17127649998292	0.033401799970306456
10	34.12996829999611	stim	345		2	ambiguous	ambiguous	preferred	600.0	30.0		38.20467829995323	0.03336899995338172
10	34.16333729994949	stim	346		2	ambiguous	ambiguous	preferred	600.0	30.0		38.23804729990661	0.03351259999908507
10	34.196849899948575	stim	347		2	ambiguous	ambiguous	preferred	600.0	30.0		38.2715598999057	0.033127899980172515
10	34.22997779992875	stim	348		2	ambiguous	ambiguous	preferred	600.0	30.0		38.30468779988587	0.03325189999304712
10	34.263229699921794	stim	349		2	ambiguous	ambiguous	preferred	600.0	30.0		38.337939699878916	0.03337030007969588
