trial_nr	onset	event_type	phase	response	nr_frames	block_type	trial_type	block_ID	response_hand	phase_length	last_frame	key_duration	onset_abs	duration
0	0.024908400024287403	stim	0		0	ambiguous_practice	ambiguous_practice	0.0	preferred_right	3600.0	0.0		6.248217899992596	4.552936199994292
0	4.5778446000185795	ambiguous_practice	0	space	0	ambiguous_practice	ambiguous_practice	0.0	preferred_right	3600.0	0.0	0.058076799963600934	10.801154099986888	0.4447247000061907
0	5.02256930002477	ambiguous_practice	0	space	1	ambiguous_practice	ambiguous_practice	0.0	preferred_right	3600.0	0.0	0.058100499969441444	11.24587879999308	-4.912466600013431
0	0.11010270001133904	stim	1		2	ambiguous_practice	ambiguous_practice	0.0	preferred_right	3600.0	0.0		6.333412199979648	0.03157170000486076
0	0.1416744000161998	stim	2		2	ambiguous_practice	ambiguous_practice	0.0	preferred_right	3600.0	0.0		6.364983899984509	0.033309799968265
0	0.1749841999844648	stim	3		2	ambiguous_practice	ambiguous_practice	0.0	preferred_right	3600.0	0.0		6.398293699952774	0.03331380005693063
0	0.20829800004139543	stim	4		2	ambiguous_practice	ambiguous_practice	0.0	preferred_right	3600.0	0.0		6.431607500009704	0.03353749995585531
0	0.24183549999725074	stim	5		2	ambiguous_practice	ambiguous_practice	0.0	preferred_right	3600.0	0.0		6.46514499996556	0.033412199991289526
0	0.27524769998854026	stim	6		2	ambiguous_practice	ambiguous_practice	0.0	preferred_right	3600.0	0.0		6.498557199956849	0.03347000002395362
0	0.3087177000124939	stim	7		2	ambiguous_practice	ambiguous_practice	0.0	preferred_right	3600.0	0.0		6.532027199980803	0.033070100005716085
0	0.34178780001820996	stim	8		2	ambiguous_practice	ambiguous_practice	0.0	preferred_right	3600.0	0.0		6.565097299986519	0.03395939996698871
0	0.3757471999851987	stim	9		2	ambiguous_practice	ambiguous_practice	0.0	preferred_right	3600.0	0.0		6.599056699953508	0.03330030001234263
0	0.4090474999975413	stim	10		2	ambiguous_practice	ambiguous_practice	0.0	preferred_right	3600.0	0.0		6.63235699996585	0.03341650002403185
0	0.44246400002157316	stim	11		2	ambiguous_practice	ambiguous_practice	0.0	preferred_right	3600.0	0.0		6.665773499989882	0.033387299976311624
0	0.4758512999978848	stim	12		2	ambiguous_practice	ambiguous_practice	0.0	preferred_right	3600.0	0.0		6.699160799966194	0.03346250002505258
0	0.5093138000229374	stim	13		2	ambiguous_practice	ambiguous_practice	0.0	preferred_right	3600.0	0.0		6.732623299991246	0.03536460001487285
0	0.5446784000378102	stim	14		2	ambiguous_practice	ambiguous_practice	0.0	preferred_right	3600.0	0.0		6.767987900006119	0.031256499991286546
0	0.5759349000290968	stim	15		2	ambiguous_practice	ambiguous_practice	0.0	preferred_right	3600.0	0.0		6.799244399997406	0.033258499985095114
0	0.6091934000141919	stim	16		2	ambiguous_practice	ambiguous_practice	0.0	preferred_right	3600.0	0.0		6.832502899982501	0.03559300000779331
0	0.6447864000219852	stim	17		2	ambiguous_practice	ambiguous_practice	0.0	preferred_right	3600.0	0.0		6.868095899990294	0.03346519998740405
0	0.6782516000093892	stim	18		2	ambiguous_practice	ambiguous_practice	0.0	preferred_right	3600.0	0.0		6.901561099977698	0.033320699993055314
0	0.7115723000024445	stim	19		2	ambiguous_practice	ambiguous_practice	0.0	preferred_right	3600.0	0.0		6.9348817999707535	0.03320250002434477
0	0.7447748000267893	stim	20		2	ambiguous_practice	ambiguous_practice	0.0	preferred_right	3600.0	0.0		6.968084299995098	0.033999099978245795
0	0.7787739000050351	stim	21		2	ambiguous_practice	ambiguous_practice	0.0	preferred_right	3600.0	0.0		7.002083399973344	0.033363700029440224
0	0.8121376000344753	stim	22		2	ambiguous_practice	ambiguous_practice	0.0	preferred_right	3600.0	0.0		7.035447100002784	0.03356849995907396
0	0.8457060999935493	stim	23		2	ambiguous_practice	ambiguous_practice	0.0	preferred_right	3600.0	0.0		7.069015599961858	0.04931100003886968
0	0.895017100032419	stim	24		2	ambiguous_practice	ambiguous_practice	0.0	preferred_right	3600.0	0.0		7.118326600000728	0.03353879996575415
0	0.9285558999981731	stim	25		2	ambiguous_practice	ambiguous_practice	0.0	preferred_right	3600.0	0.0		7.151865399966482	0.03350670001236722
0	0.9620626000105403	stim	26		2	ambiguous_practice	ambiguous_practice	0.0	preferred_right	3600.0	0.0		7.185372099978849	0.033400600019376725
0	0.9954632000299171	stim	27		2	ambiguous_practice	ambiguous_practice	0.0	preferred_right	3600.0	0.0		7.218772699998226	0.032915999996475875
0	1.028379200026393	stim	28		2	ambiguous_practice	ambiguous_practice	0.0	preferred_right	3600.0	0.0		7.251688699994702	0.03406400000676513
0	1.062443200033158	stim	29		2	ambiguous_practice	ambiguous_practice	0.0	preferred_right	3600.0	0.0		7.285752700001467	0.032960399985313416
0	1.0954036000184715	stim	30		2	ambiguous_practice	ambiguous_practice	0.0	preferred_right	3600.0	0.0		7.31871309998678	0.033154800010379404
0	1.1285584000288509	stim	31		2	ambiguous_practice	ambiguous_practice	0.0	preferred_right	3600.0	0.0		7.35186789999716	0.03389789996435866
0	1.1624562999932095	stim	32		2	ambiguous_practice	ambiguous_practice	0.0	preferred_right	3600.0	0.0		7.3857657999615185	0.03327529999660328
0	1.1957315999898128	stim	33		2	ambiguous_practice	ambiguous_practice	0.0	preferred_right	3600.0	0.0		7.419041099958122	0.033930900041013956
0	1.2296625000308268	stim	34		2	ambiguous_practice	ambiguous_practice	0.0	preferred_right	3600.0	0.0		7.452971999999136	0.0496739000082016
0	1.2793364000390284	stim	35		2	ambiguous_practice	ambiguous_practice	0.0	preferred_right	3600.0	0.0		7.502645900007337	0.03331659996183589
0	1.3126530000008643	stim	36		2	ambiguous_practice	ambiguous_practice	0.0	preferred_right	3600.0	0.0		7.535962499969173	0.03242350002983585
0	1.3450765000307001	stim	37		2	ambiguous_practice	ambiguous_practice	0.0	preferred_right	3600.0	0.0		7.568385999999009	0.033529499953147024
0	1.3786059999838471	stim	38		2	ambiguous_practice	ambiguous_practice	0.0	preferred_right	3600.0	0.0		7.601915499952156	0.03378019999945536
0	1.4123861999833025	stim	39		2	ambiguous_practice	ambiguous_practice	0.0	preferred_right	3600.0	0.0		7.6356956999516115	0.03286690003005788
0	1.4452531000133604	stim	40		2	ambiguous_practice	ambiguous_practice	0.0	preferred_right	3600.0	0.0		7.668562599981669	0.03348889999324456
0	1.478742000006605	stim	41		2	ambiguous_practice	ambiguous_practice	0.0	preferred_right	3600.0	0.0		7.702051499974914	0.03390959999524057
0	1.5126516000018455	stim	42		2	ambiguous_practice	ambiguous_practice	0.0	preferred_right	3600.0	0.0		7.7359610999701545	0.03322749998187646
0	1.545879099983722	stim	43		2	ambiguous_practice	ambiguous_practice	0.0	preferred_right	3600.0	0.0		7.769188599952031	0.032827000017277896
0	1.5787061000009999	stim	44		2	ambiguous_practice	ambiguous_practice	0.0	preferred_right	3600.0	0.0		7.802015599969309	0.03338059998350218
0	1.612086699984502	stim	45		2	ambiguous_practice	ambiguous_practice	0.0	preferred_right	3600.0	0.0		7.835396199952811	0.03374690003693104
0	1.645833600021433	stim	46		2	ambiguous_practice	ambiguous_practice	0.0	preferred_right	3600.0	0.0		7.869143099989742	0.03311049996409565
0	1.6789440999855287	stim	47		2	ambiguous_practice	ambiguous_practice	0.0	preferred_right	3600.0	0.0		7.902253599953838	0.03330170002300292
0	1.7122458000085317	stim	48		2	ambiguous_practice	ambiguous_practice	0.0	preferred_right	3600.0	0.0		7.935555299976841	0.03329639998264611
0	1.7455421999911778	stim	49		2	ambiguous_practice	ambiguous_practice	0.0	preferred_right	3600.0	0.0		7.968851699959487	0.03356470004655421
0	1.779106900037732	stim	50		2	ambiguous_practice	ambiguous_practice	0.0	preferred_right	3600.0	0.0		8.002416400006041	0.05014519998803735
0	1.8292521000257693	stim	51		2	ambiguous_practice	ambiguous_practice	0.0	preferred_right	3600.0	0.0		8.052561599994078	0.033347099961247295
0	1.8625991999870166	stim	52		2	ambiguous_practice	ambiguous_practice	0.0	preferred_right	3600.0	0.0		8.085908699955326	0.03367540001636371
0	1.8962746000033803	stim	53		2	ambiguous_practice	ambiguous_practice	0.0	preferred_right	3600.0	0.0		8.11958409997169	0.03353140002582222
0	1.9298060000292026	stim	54		2	ambiguous_practice	ambiguous_practice	0.0	preferred_right	3600.0	0.0		8.153115499997512	0.03345859999535605
0	1.9632646000245586	stim	55		2	ambiguous_practice	ambiguous_practice	0.0	preferred_right	3600.0	0.0		8.186574099992868	0.03326599998399615
0	1.9965306000085548	stim	56		2	ambiguous_practice	ambiguous_practice	0.0	preferred_right	3600.0	0.0		8.219840099976864	0.03361620003124699
0	2.0301468000398017	stim	57		2	ambiguous_practice	ambiguous_practice	0.0	preferred_right	3600.0	0.0		8.25345630000811	0.03331939998315647
0	2.063466200022958	stim	58		2	ambiguous_practice	ambiguous_practice	0.0	preferred_right	3600.0	0.0		8.286775699991267	0.03326289996039122
0	2.0967290999833494	stim	59		2	ambiguous_practice	ambiguous_practice	0.0	preferred_right	3600.0	0.0		8.320038599951658	0.03345620003528893
0	2.1301853000186384	stim	60		2	ambiguous_practice	ambiguous_practice	0.0	preferred_right	3600.0	0.0		8.353494799986947	0.03347690001828596
0	2.1636622000369243	stim	61		2	ambiguous_practice	ambiguous_practice	0.0	preferred_right	3600.0	0.0		8.386971700005233	0.03340279997792095
0	2.1970650000148453	stim	62		2	ambiguous_practice	ambiguous_practice	0.0	preferred_right	3600.0	0.0		8.420374499983154	0.033662899979390204
0	2.2307278999942355	stim	63		2	ambiguous_practice	ambiguous_practice	0.0	preferred_right	3600.0	0.0		8.454037399962544	0.03381870000157505
0	2.2645465999958105	stim	64		2	ambiguous_practice	ambiguous_practice	0.0	preferred_right	3600.0	0.0		8.48785609996412	0.03360750002320856
0	2.298154100019019	stim	65		2	ambiguous_practice	ambiguous_practice	0.0	preferred_right	3600.0	0.0		8.521463599987328	0.033141299965791404
0	2.3312953999848105	stim	66		2	ambiguous_practice	ambiguous_practice	0.0	preferred_right	3600.0	0.0		8.55460489995312	0.03369950002525002
0	2.3649949000100605	stim	67		2	ambiguous_practice	ambiguous_practice	0.0	preferred_right	3600.0	0.0		8.58830439997837	0.03344899998046458
0	2.398443899990525	stim	68		2	ambiguous_practice	ambiguous_practice	0.0	preferred_right	3600.0	0.0		8.621753399958834	0.03335850004805252
0	2.4318024000385776	stim	69		2	ambiguous_practice	ambiguous_practice	0.0	preferred_right	3600.0	0.0		8.655111900006887	0.03302929998608306
0	2.4648317000246607	stim	70		2	ambiguous_practice	ambiguous_practice	0.0	preferred_right	3600.0	0.0		8.68814119999297	0.03346599999349564
0	2.4982977000181563	stim	71		2	ambiguous_practice	ambiguous_practice	0.0	preferred_right	3600.0	0.0		8.721607199986465	0.03342950000660494
0	2.5317272000247613	stim	72		2	ambiguous_practice	ambiguous_practice	0.0	preferred_right	3600.0	0.0		8.75503669999307	0.0333913000067696
0	2.565118500031531	stim	73		2	ambiguous_practice	ambiguous_practice	0.0	preferred_right	3600.0	0.0		8.78842799999984	0.03317119996063411
0	2.598289699992165	stim	74		2	ambiguous_practice	ambiguous_practice	0.0	preferred_right	3600.0	0.0		8.821599199960474	0.03391520003788173
0	2.6322049000300467	stim	75		2	ambiguous_practice	ambiguous_practice	0.0	preferred_right	3600.0	0.0		8.855514399998356	0.03298660001019016
0	2.665191500040237	stim	76		2	ambiguous_practice	ambiguous_practice	0.0	preferred_right	3600.0	0.0		8.888501000008546	0.03365859994664788
0	2.6988500999868847	stim	77		2	ambiguous_practice	ambiguous_practice	0.0	preferred_right	3600.0	0.0		8.922159599955194	0.03338080004323274
0	2.7322309000301175	stim	78		2	ambiguous_practice	ambiguous_practice	0.0	preferred_right	3600.0	0.0		8.955540399998426	0.03344819997437298
0	2.7656791000044905	stim	79		2	ambiguous_practice	ambiguous_practice	0.0	preferred_right	3600.0	0.0		8.9889885999728	0.03315099998144433
0	2.798830099985935	stim	80		2	ambiguous_practice	ambiguous_practice	0.0	preferred_right	3600.0	0.0		9.022139599954244	0.03294620005181059
0	2.8317763000377454	stim	81		2	ambiguous_practice	ambiguous_practice	0.0	preferred_right	3600.0	0.0		9.055085800006054	0.03393039997899905
0	2.8657067000167444	stim	82		2	ambiguous_practice	ambiguous_practice	0.0	preferred_right	3600.0	0.0		9.089016199985053	0.03334610001184046
0	2.899052800028585	stim	83		2	ambiguous_practice	ambiguous_practice	0.0	preferred_right	3600.0	0.0		9.122362299996894	0.033208000008016825
0	2.9322608000366017	stim	84		2	ambiguous_practice	ambiguous_practice	0.0	preferred_right	3600.0	0.0		9.15557030000491	0.03351549996295944
0	2.965776299999561	stim	85		2	ambiguous_practice	ambiguous_practice	0.0	preferred_right	3600.0	0.0		9.18908579996787	0.033567800011951476
0	2.9993441000115126	stim	86		2	ambiguous_practice	ambiguous_practice	0.0	preferred_right	3600.0	0.0		9.222653599979822	0.033188699977472425
0	3.032532799988985	stim	87		2	ambiguous_practice	ambiguous_practice	0.0	preferred_right	3600.0	0.0		9.255842299957294	0.03350030002184212
0	3.066033100010827	stim	88		2	ambiguous_practice	ambiguous_practice	0.0	preferred_right	3600.0	0.0		9.289342599979136	0.03361799998674542
0	3.0996510999975726	stim	89		2	ambiguous_practice	ambiguous_practice	0.0	preferred_right	3600.0	0.0		9.322960599965882	0.033070100005716085
0	3.1327212000032887	stim	90		2	ambiguous_practice	ambiguous_practice	0.0	preferred_right	3600.0	0.0		9.356030699971598	0.03363439999520779
0	3.1663555999984965	stim	91		2	ambiguous_practice	ambiguous_practice	0.0	preferred_right	3600.0	0.0		9.389665099966805	0.033390299999155104
0	3.1997458999976516	stim	92		2	ambiguous_practice	ambiguous_practice	0.0	preferred_right	3600.0	0.0		9.42305539996596	0.03352440003072843
0	3.23327030002838	stim	93		2	ambiguous_practice	ambiguous_practice	0.0	preferred_right	3600.0	0.0		9.456579799996689	0.03329409996513277
0	3.266564399993513	stim	94		2	ambiguous_practice	ambiguous_practice	0.0	preferred_right	3600.0	0.0		9.489873899961822	0.03278020001016557
0	3.2993446000036784	stim	95		2	ambiguous_practice	ambiguous_practice	0.0	preferred_right	3600.0	0.0		9.522654099971987	0.033612600003834814
0	3.332957200007513	stim	96		2	ambiguous_practice	ambiguous_practice	0.0	preferred_right	3600.0	0.0		9.556266699975822	0.033799000026192516
0	3.3667562000337057	stim	97		2	ambiguous_practice	ambiguous_practice	0.0	preferred_right	3600.0	0.0		9.590065700002015	0.03372139995917678
0	3.4004775999928825	stim	98		2	ambiguous_practice	ambiguous_practice	0.0	preferred_right	3600.0	0.0		9.623787099961191	0.033259899995755404
0	3.433737499988638	stim	99		2	ambiguous_practice	ambiguous_practice	0.0	preferred_right	3600.0	0.0		9.657046999956947	0.03327650000574067
0	3.4670139999943785	stim	100		2	ambiguous_practice	ambiguous_practice	0.0	preferred_right	3600.0	0.0		9.690323499962687	0.03341910004382953
0	3.500433100038208	stim	101		2	ambiguous_practice	ambiguous_practice	0.0	preferred_right	3600.0	0.0		9.723742600006517	0.03338939999230206
0	3.53382250003051	stim	102		2	ambiguous_practice	ambiguous_practice	0.0	preferred_right	3600.0	0.0		9.757131999998819	0.03314779995707795
0	3.566970299987588	stim	103		2	ambiguous_practice	ambiguous_practice	0.0	preferred_right	3600.0	0.0		9.790279799955897	0.033911800011992455
0	3.6008820999995805	stim	104		2	ambiguous_practice	ambiguous_practice	0.0	preferred_right	3600.0	0.0		9.82419159996789	0.03336150001268834
0	3.634243600012269	stim	105		2	ambiguous_practice	ambiguous_practice	0.0	preferred_right	3600.0	0.0		9.857553099980578	0.0330936000100337
0	3.6673372000223026	stim	106		2	ambiguous_practice	ambiguous_practice	0.0	preferred_right	3600.0	0.0		9.890646699990612	0.03349750000052154
0	3.700834700022824	stim	107		2	ambiguous_practice	ambiguous_practice	0.0	preferred_right	3600.0	0.0		9.924144199991133	0.033424099965486676
0	3.734258799988311	stim	108		2	ambiguous_practice	ambiguous_practice	0.0	preferred_right	3600.0	0.0		9.95756829995662	0.033085100003518164
0	3.767343899991829	stim	109		2	ambiguous_practice	ambiguous_practice	0.0	preferred_right	3600.0	0.0		9.990653399960138	0.03353650000644848
0	3.8008803999982774	stim	110		2	ambiguous_practice	ambiguous_practice	0.0	preferred_right	3600.0	0.0		10.024189899966586	0.03370620001805946
0	3.834586600016337	stim	111		2	ambiguous_practice	ambiguous_practice	0.0	preferred_right	3600.0	0.0		10.057896099984646	0.03349170001456514
0	3.868078300030902	stim	112		2	ambiguous_practice	ambiguous_practice	0.0	preferred_right	3600.0	0.0		10.091387799999211	0.033253900008276105
0	3.901332200039178	stim	113		2	ambiguous_practice	ambiguous_practice	0.0	preferred_right	3600.0	0.0		10.124641700007487	0.0334022999741137
0	3.934734500013292	stim	114		2	ambiguous_practice	ambiguous_practice	0.0	preferred_right	3600.0	0.0		10.1580439999816	0.033195799973327667
0	3.9679302999866195	stim	115		2	ambiguous_practice	ambiguous_practice	0.0	preferred_right	3600.0	0.0		10.191239799954928	0.03339240001514554
0	4.001322700001765	stim	116		2	ambiguous_practice	ambiguous_practice	0.0	preferred_right	3600.0	0.0		10.224632199970074	0.033202200022060424
0	4.0345249000238255	stim	117		2	ambiguous_practice	ambiguous_practice	0.0	preferred_right	3600.0	0.0		10.257834399992134	0.03341769997496158
0	4.067942599998787	stim	118		2	ambiguous_practice	ambiguous_practice	0.0	preferred_right	3600.0	0.0		10.291252099967096	0.03375250002136454
0	4.101695100020152	stim	119		2	ambiguous_practice	ambiguous_practice	0.0	preferred_right	3600.0	0.0		10.32500459998846	0.03344289999222383
0	4.135138000012375	stim	120		2	ambiguous_practice	ambiguous_practice	0.0	preferred_right	3600.0	0.0		10.358447499980684	0.0337631999864243
0	4.1689011999988	stim	121		2	ambiguous_practice	ambiguous_practice	0.0	preferred_right	3600.0	0.0		10.392210699967109	0.03293570003006607
0	4.201836900028866	stim	122		2	ambiguous_practice	ambiguous_practice	0.0	preferred_right	3600.0	0.0		10.425146399997175	0.03371819999301806
0	4.235555100021884	stim	123		2	ambiguous_practice	ambiguous_practice	0.0	preferred_right	3600.0	0.0		10.458864599990193	0.033489499997813255
0	4.269044600019697	stim	124		2	ambiguous_practice	ambiguous_practice	0.0	preferred_right	3600.0	0.0		10.492354099988006	0.033530899963807315
0	4.302575499983504	stim	125		2	ambiguous_practice	ambiguous_practice	0.0	preferred_right	3600.0	0.0		10.525884999951813	0.03332020004745573
0	4.33589570003096	stim	126		2	ambiguous_practice	ambiguous_practice	0.0	preferred_right	3600.0	0.0		10.559205199999269	0.03326289996039122
0	4.369158599991351	stim	127		2	ambiguous_practice	ambiguous_practice	0.0	preferred_right	3600.0	0.0		10.59246809995966	0.03340549999848008
0	4.4025640999898314	stim	128		2	ambiguous_practice	ambiguous_practice	0.0	preferred_right	3600.0	0.0		10.62587359995814	0.033573799999430776
0	4.436137899989262	stim	129		2	ambiguous_practice	ambiguous_practice	0.0	preferred_right	3600.0	0.0		10.659447399957571	0.03310330002568662
0	4.469241200014949	stim	130		2	ambiguous_practice	ambiguous_practice	0.0	preferred_right	3600.0	0.0		10.692550699983258	0.03302059997804463
0	4.5022617999929935	stim	131		2	ambiguous_practice	ambiguous_practice	0.0	preferred_right	3600.0	0.0		10.725571299961302	0.03368390002287924
0	4.535945700015873	stim	132		2	ambiguous_practice	ambiguous_practice	0.0	preferred_right	3600.0	0.0		10.759255199984182	0.03388709999853745
0	4.56983280001441	stim	133		2	ambiguous_practice	ambiguous_practice	0.0	preferred_right	3600.0	0.0		10.79314229998272	0.03346780000720173
0	4.603300600021612	stim	134		2	ambiguous_practice	ambiguous_practice	0.0	preferred_right	3600.0	0.0		10.82661009998992	0.032999099988956004
0	4.636299700010568	stim	135		2	ambiguous_practice	ambiguous_practice	0.0	preferred_right	3600.0	0.0		10.859609199978877	0.03327259997604415
0	4.669572299986612	stim	136		2	ambiguous_practice	ambiguous_practice	0.0	preferred_right	3600.0	0.0		10.892881799954921	0.03356990002794191
0	4.703142200014554	stim	137		2	ambiguous_practice	ambiguous_practice	0.0	preferred_right	3600.0	0.0		10.926451699982863	0.033753299969248474
0	4.736895499983802	stim	138		2	ambiguous_practice	ambiguous_practice	0.0	preferred_right	3600.0	0.0		10.960204999952111	0.032735300017520785
0	4.769630800001323	stim	139		2	ambiguous_practice	ambiguous_practice	0.0	preferred_right	3600.0	0.0		10.992940299969632	0.03391450003255159
0	4.803545300033875	stim	140		2	ambiguous_practice	ambiguous_practice	0.0	preferred_right	3600.0	0.0		11.026854800002184	0.03318949998356402
0	4.836734800017439	stim	141		2	ambiguous_practice	ambiguous_practice	0.0	preferred_right	3600.0	0.0		11.060044299985748	0.0338989999727346
0	4.870633799990173	stim	142		2	ambiguous_practice	ambiguous_practice	0.0	preferred_right	3600.0	0.0		11.093943299958482	0.03267859999323264
0	4.903312399983406	stim	143		2	ambiguous_practice	ambiguous_practice	0.0	preferred_right	3600.0	0.0		11.126621899951715	0.03359370003454387
0	4.93690610001795	stim	144		2	ambiguous_practice	ambiguous_practice	0.0	preferred_right	3600.0	0.0		11.160215599986259	0.03347229998325929
0	4.970378400001209	stim	145		2	ambiguous_practice	ambiguous_practice	0.0	preferred_right	3600.0	0.0		11.193687899969518	0.03269770002225414
0	5.003076100023463	stim	146		2	ambiguous_practice	ambiguous_practice	0.0	preferred_right	3600.0	0.0		11.226385599991772	0.033425799978431314
0	5.036501900001895	stim	147		2	ambiguous_practice	ambiguous_practice	0.0	preferred_right	3600.0	0.0		11.259811399970204	0.03380179998930544
0	5.0703036999912	stim	148		2	ambiguous_practice	ambiguous_practice	0.0	preferred_right	3600.0	0.0		11.293613199959509	0.033280600036960095
0	5.10358430002816	stim	149		2	ambiguous_practice	ambiguous_practice	0.0	preferred_right	3600.0	0.0		11.32689379999647	0.03343099995981902
0	5.137015299987979	stim	150		2	ambiguous_practice	ambiguous_practice	0.0	preferred_right	3600.0	0.0		11.360324799956288	0.033294000022578984
0	5.170309300010558	stim	151		2	ambiguous_practice	ambiguous_practice	0.0	preferred_right	3600.0	0.0		11.393618799978867	0.03311680001206696
0	5.203426100022625	stim	152		2	ambiguous_practice	ambiguous_practice	0.0	preferred_right	3600.0	0.0		11.426735599990934	0.033542899996973574
0	5.236969000019599	stim	153		2	ambiguous_practice	ambiguous_practice	0.0	preferred_right	3600.0	0.0		11.460278499987908	0.032947300001978874
0	5.269916300021578	stim	154		2	ambiguous_practice	ambiguous_practice	0.0	preferred_right	3600.0	0.0		11.493225799989887	0.033778399985749274
0	5.303694700007327	stim	155		2	ambiguous_practice	ambiguous_practice	0.0	preferred_right	3600.0	0.0		11.527004199975636	0.033759300014935434
0	5.337454000022262	stim	156		2	ambiguous_practice	ambiguous_practice	0.0	preferred_right	3600.0	0.0		11.560763499990571	0.033283700002357364
0	5.37073770002462	stim	157		2	ambiguous_practice	ambiguous_practice	0.0	preferred_right	3600.0	0.0		11.594047199992929	0.03343640000093728
0	5.404174100025557	stim	158		2	ambiguous_practice	ambiguous_practice	0.0	preferred_right	3600.0	0.0		11.627483599993866	0.03270619997056201
0	5.436880299996119	stim	159		2	ambiguous_practice	ambiguous_practice	0.0	preferred_right	3600.0	0.0		11.660189799964428	0.034034500014968216
0	5.470914800011087	stim	160		2	ambiguous_practice	ambiguous_practice	0.0	preferred_right	3600.0	0.0		11.694224299979396	0.032822899986058474
0	5.503737699997146	stim	161		2	ambiguous_practice	ambiguous_practice	0.0	preferred_right	3600.0	0.0		11.727047199965455	0.03366100002313033
0	5.537398700020276	stim	162		2	ambiguous_practice	ambiguous_practice	0.0	preferred_right	3600.0	0.0		11.760708199988585	0.03389889997197315
0	5.571297599992249	stim	163		2	ambiguous_practice	ambiguous_practice	0.0	preferred_right	3600.0	0.0		11.794607099960558	0.03342310001607984
0	5.604720700008329	stim	164		2	ambiguous_practice	ambiguous_practice	0.0	preferred_right	3600.0	0.0		11.828030199976638	0.03315229999134317
0	5.637872999999672	stim	165		2	ambiguous_practice	ambiguous_practice	0.0	preferred_right	3600.0	0.0		11.861182499967981	0.03343990002758801
0	5.67131290002726	stim	166		2	ambiguous_practice	ambiguous_practice	0.0	preferred_right	3600.0	0.0		11.89462239999557	0.03336239996133372
0	5.704675299988594	stim	167		2	ambiguous_practice	ambiguous_practice	0.0	preferred_right	3600.0	0.0		11.927984799956903	0.033411000040359795
0	5.738086300028954	stim	168		2	ambiguous_practice	ambiguous_practice	0.0	preferred_right	3600.0	0.0		11.961395799997263	0.03258479997748509
0	5.770671100006439	stim	169		2	ambiguous_practice	ambiguous_practice	0.0	preferred_right	3600.0	0.0		11.993980599974748	0.03381789999548346
0	5.804489000001922	stim	170		2	ambiguous_practice	ambiguous_practice	0.0	preferred_right	3600.0	0.0		12.027798499970231	0.033219899982213974
0	5.837708899984136	stim	171		2	ambiguous_practice	ambiguous_practice	0.0	preferred_right	3600.0	0.0		12.061018399952445	0.0336517000105232
0	5.871360599994659	stim	172		2	ambiguous_practice	ambiguous_practice	0.0	preferred_right	3600.0	0.0		12.094670099962968	0.03334010002436116
0	5.904700700019021	stim	173		2	ambiguous_practice	ambiguous_practice	0.0	preferred_right	3600.0	0.0		12.12801019998733	0.033227099978830665
0	5.937927799997851	stim	174		2	ambiguous_practice	ambiguous_practice	0.0	preferred_right	3600.0	0.0		12.16123729996616	0.03328410000540316
0	5.971211900003254	stim	175		2	ambiguous_practice	ambiguous_practice	0.0	preferred_right	3600.0	0.0		12.194521399971563	0.03360010002506897
0	6.004812000028323	stim	176		2	ambiguous_practice	ambiguous_practice	0.0	preferred_right	3600.0	0.0		12.228121499996632	0.032784299983177334
0	6.037596300011501	stim	177		2	ambiguous_practice	ambiguous_practice	0.0	preferred_right	3600.0	0.0		12.26090579997981	0.050376900006085634
0	6.087973200017586	stim	178		2	ambiguous_practice	ambiguous_practice	0.0	preferred_right	3600.0	0.0		12.311282699985895	0.033480399986729026
0	6.121453600004315	stim	179		2	ambiguous_practice	ambiguous_practice	0.0	preferred_right	3600.0	0.0		12.344763099972624	0.03283229999942705
0	6.154285900003742	stim	180		2	ambiguous_practice	ambiguous_practice	0.0	preferred_right	3600.0	0.0		12.377595399972051	0.03377620002720505
0	6.1880621000309475	stim	181		2	ambiguous_practice	ambiguous_practice	0.0	preferred_right	3600.0	0.0		12.411371599999256	0.033476099953986704
0	6.221538199984934	stim	182		2	ambiguous_practice	ambiguous_practice	0.0	preferred_right	3600.0	0.0		12.444847699953243	0.03380270005436614
0	6.2553409000393	stim	183		2	ambiguous_practice	ambiguous_practice	0.0	preferred_right	3600.0	0.0		12.47865040000761	0.032129300001543015
0	6.287470200040843	stim	184		2	ambiguous_practice	ambiguous_practice	0.0	preferred_right	3600.0	0.0		12.510779700009152	0.03389169997535646
0	6.3213619000162	stim	185		2	ambiguous_practice	ambiguous_practice	0.0	preferred_right	3600.0	0.0		12.544671399984509	0.03349190001608804
0	6.354853800032288	stim	186		2	ambiguous_practice	ambiguous_practice	0.0	preferred_right	3600.0	0.0		12.578163300000597	0.03316569997696206
0	6.38801950000925	stim	187		2	ambiguous_practice	ambiguous_practice	0.0	preferred_right	3600.0	0.0		12.611328999977559	0.033707300026435405
0	6.421726800035685	stim	188		2	ambiguous_practice	ambiguous_practice	0.0	preferred_right	3600.0	0.0		12.645036300003994	0.05004889995325357
0	6.471775699988939	stim	189		2	ambiguous_practice	ambiguous_practice	0.0	preferred_right	3600.0	0.0		12.695085199957248	0.033404900052119046
0	6.505180600041058	stim	190		2	ambiguous_practice	ambiguous_practice	0.0	preferred_right	3600.0	0.0		12.728490100009367	0.03260519995819777
0	6.537785799999256	stim	191		2	ambiguous_practice	ambiguous_practice	0.0	preferred_right	3600.0	0.0		12.761095299967565	0.0339924999861978
0	6.5717782999854535	stim	192		2	ambiguous_practice	ambiguous_practice	0.0	preferred_right	3600.0	0.0		12.795087799953762	0.033387100032996386
0	6.60516540001845	stim	193		2	ambiguous_practice	ambiguous_practice	0.0	preferred_right	3600.0	0.0		12.828474899986759	0.03344410000136122
0	6.638609500019811	stim	194		2	ambiguous_practice	ambiguous_practice	0.0	preferred_right	3600.0	0.0		12.86191899998812	0.03354789997683838
0	6.6721573999966495	stim	195		2	ambiguous_practice	ambiguous_practice	0.0	preferred_right	3600.0	0.0		12.895466899964958	0.03311650000978261
0	6.705273900006432	stim	196		2	ambiguous_practice	ambiguous_practice	0.0	preferred_right	3600.0	0.0		12.928583399974741	0.03364310000324622
0	6.738917000009678	stim	197		2	ambiguous_practice	ambiguous_practice	0.0	preferred_right	3600.0	0.0		12.962226499977987	0.0332726999768056
0	6.772189699986484	stim	198		2	ambiguous_practice	ambiguous_practice	0.0	preferred_right	3600.0	0.0		12.995499199954793	0.03331200004322454
0	6.8055017000297084	stim	199		2	ambiguous_practice	ambiguous_practice	0.0	preferred_right	3600.0	0.0		13.028811199998017	0.03407699998933822
0	6.839578700019047	stim	200		2	ambiguous_practice	ambiguous_practice	0.0	preferred_right	3600.0	0.0		13.062888199987356	0.03310770000098273
0	6.872686400020029	stim	201		2	ambiguous_practice	ambiguous_practice	0.0	preferred_right	3600.0	0.0		13.095995899988338	0.03322519996436313
0	6.9059115999843925	stim	202		2	ambiguous_practice	ambiguous_practice	0.0	preferred_right	3600.0	0.0		13.129221099952701	0.03340580000076443
0	6.939317399985157	stim	203		2	ambiguous_practice	ambiguous_practice	0.0	preferred_right	3600.0	0.0		13.162626899953466	0.03337280004052445
0	6.972690200025681	stim	204		2	ambiguous_practice	ambiguous_practice	0.0	preferred_right	3600.0	0.0		13.19599969999399	0.03327499999431893
0	7.00596520002	stim	205		2	ambiguous_practice	ambiguous_practice	0.0	preferred_right	3600.0	0.0		13.22927469998831	0.03385900001740083
0	7.039824200037401	stim	206		2	ambiguous_practice	ambiguous_practice	0.0	preferred_right	3600.0	0.0		13.26313370000571	0.03333869995549321
0	7.073162899992894	stim	207		2	ambiguous_practice	ambiguous_practice	0.0	preferred_right	3600.0	0.0		13.296472399961203	0.03325189999304712
0	7.1064147999859415	stim	208		2	ambiguous_practice	ambiguous_practice	0.0	preferred_right	3600.0	0.0		13.32972429995425	0.03329800005303696
0	7.1397128000389785	stim	209		2	ambiguous_practice	ambiguous_practice	0.0	preferred_right	3600.0	0.0		13.363022300007287	0.03324409999186173
0	7.17295690003084	stim	210		2	ambiguous_practice	ambiguous_practice	0.0	preferred_right	3600.0	0.0		13.39626639999915	0.034003399952780455
0	7.206960299983621	stim	211		2	ambiguous_practice	ambiguous_practice	0.0	preferred_right	3600.0	0.0		13.43026979995193	0.033080600027460605
0	7.240040900011081	stim	212		2	ambiguous_practice	ambiguous_practice	0.0	preferred_right	3600.0	0.0		13.46335039997939	0.03341199998976663
0	7.273452900000848	stim	213		2	ambiguous_practice	ambiguous_practice	0.0	preferred_right	3600.0	0.0		13.496762399969157	0.03319350001402199
0	7.30664640001487	stim	214		2	ambiguous_practice	ambiguous_practice	0.0	preferred_right	3600.0	0.0		13.529955899983179	0.033866000012494624
0	7.3405124000273645	stim	215		2	ambiguous_practice	ambiguous_practice	0.0	preferred_right	3600.0	0.0		13.563821899995673	0.03385720000369474
0	7.374369600031059	stim	216		2	ambiguous_practice	ambiguous_practice	0.0	preferred_right	3600.0	0.0		13.597679099999368	0.03341179998824373
0	7.407781400019303	stim	217		2	ambiguous_practice	ambiguous_practice	0.0	preferred_right	3600.0	0.0		13.631090899987612	0.03336419997503981
0	7.441145599994343	stim	218		2	ambiguous_practice	ambiguous_practice	0.0	preferred_right	3600.0	0.0		13.664455099962652	0.033339700021315366
0	7.474485300015658	stim	219		2	ambiguous_practice	ambiguous_practice	0.0	preferred_right	3600.0	0.0		13.697794799983967	0.03364089998649433
0	7.5081262000021525	stim	220		2	ambiguous_practice	ambiguous_practice	0.0	preferred_right	3600.0	0.0		13.731435699970461	0.035356200009118766
0	7.543482400011271	stim	221		2	ambiguous_practice	ambiguous_practice	0.0	preferred_right	3600.0	0.0		13.76679189997958	0.031772300018928945
0	7.5752547000302	stim	222		2	ambiguous_practice	ambiguous_practice	0.0	preferred_right	3600.0	0.0		13.79856419999851	0.03329910000320524
0	7.608553800033405	stim	223		2	ambiguous_practice	ambiguous_practice	0.0	preferred_right	3600.0	0.0		13.831863300001714	0.033304099983070046
0	7.6418579000164755	stim	224		2	ambiguous_practice	ambiguous_practice	0.0	preferred_right	3600.0	0.0		13.865167399984784	0.03335280000464991
0	7.675210700021125	stim	225		2	ambiguous_practice	ambiguous_practice	0.0	preferred_right	3600.0	0.0		13.898520199989434	0.03500699996948242
0	7.710217699990608	stim	226		2	ambiguous_practice	ambiguous_practice	0.0	preferred_right	3600.0	0.0		13.933527199958917	0.03195360000245273
0	7.7421712999930605	stim	227		2	ambiguous_practice	ambiguous_practice	0.0	preferred_right	3600.0	0.0		13.96548079996137	0.03336310002487153
0	7.775534400017932	stim	228		2	ambiguous_practice	ambiguous_practice	0.0	preferred_right	3600.0	0.0		13.998843899986241	0.03328420000616461
0	7.808818600024097	stim	229		2	ambiguous_practice	ambiguous_practice	0.0	preferred_right	3600.0	0.0		14.032128099992406	0.036369799985550344
0	7.845188400009647	stim	230		2	ambiguous_practice	ambiguous_practice	0.0	preferred_right	3600.0	0.0		14.068497899977956	0.031628700031433254
0	7.87681710004108	stim	231		2	ambiguous_practice	ambiguous_practice	0.0	preferred_right	3600.0	0.0		14.10012660000939	0.035335599968675524
0	7.912152700009756	stim	232		2	ambiguous_practice	ambiguous_practice	0.0	preferred_right	3600.0	0.0		14.135462199978065	0.03362609999021515
0	7.945778799999971	stim	233		2	ambiguous_practice	ambiguous_practice	0.0	preferred_right	3600.0	0.0		14.16908829996828	0.033674700011033565
0	7.9794535000110045	stim	234		2	ambiguous_practice	ambiguous_practice	0.0	preferred_right	3600.0	0.0		14.202762999979313	0.049345600011292845
0	8.028799100022297	stim	235		2	ambiguous_practice	ambiguous_practice	0.0	preferred_right	3600.0	0.0		14.252108599990606	0.032921899983193725
0	8.061721000005491	stim	236		2	ambiguous_practice	ambiguous_practice	0.0	preferred_right	3600.0	0.0		14.2850304999738	0.03375070000765845
0	8.09547170001315	stim	237		2	ambiguous_practice	ambiguous_practice	0.0	preferred_right	3600.0	0.0		14.318781199981458	0.03309629997238517
0	8.128567999985535	stim	238		2	ambiguous_practice	ambiguous_practice	0.0	preferred_right	3600.0	0.0		14.351877499953844	0.034083700040355325
0	8.16265170002589	stim	239		2	ambiguous_practice	ambiguous_practice	0.0	preferred_right	3600.0	0.0		14.385961199994199	0.03275199997005984
0	8.19540369999595	stim	240		2	ambiguous_practice	ambiguous_practice	0.0	preferred_right	3600.0	0.0		14.418713199964259	0.03366350004216656
0	8.229067200038116	stim	241		2	ambiguous_practice	ambiguous_practice	0.0	preferred_right	3600.0	0.0		14.452376700006425	0.033077599946409464
0	8.262144799984526	stim	242		2	ambiguous_practice	ambiguous_practice	0.0	preferred_right	3600.0	0.0		14.485454299952835	0.03311509999912232
0	8.295259899983648	stim	243		2	ambiguous_practice	ambiguous_practice	0.0	preferred_right	3600.0	0.0		14.518569399951957	0.051409500010777265
0	8.346669399994425	stim	244		2	ambiguous_practice	ambiguous_practice	0.0	preferred_right	3600.0	0.0		14.569978899962734	0.03243990003829822
0	8.379109300032724	stim	245		2	ambiguous_practice	ambiguous_practice	0.0	preferred_right	3600.0	0.0		14.602418800001033	0.032935299968812615
0	8.412044600001536	stim	246		2	ambiguous_practice	ambiguous_practice	0.0	preferred_right	3600.0	0.0		14.635354099969845	0.033693799981847405
0	8.445738399983384	stim	247		2	ambiguous_practice	ambiguous_practice	0.0	preferred_right	3600.0	0.0		14.669047899951693	0.03302910004276782
0	8.478767500026152	stim	248		2	ambiguous_practice	ambiguous_practice	0.0	preferred_right	3600.0	0.0		14.70207699999446	0.03324600000632927
0	8.51201350003248	stim	249		2	ambiguous_practice	ambiguous_practice	0.0	preferred_right	3600.0	0.0		14.73532300000079	0.03280309995170683
0	8.544816599984188	stim	250		2	ambiguous_practice	ambiguous_practice	0.0	preferred_right	3600.0	0.0		14.768126099952497	0.03352420002920553
0	8.578340800013393	stim	251		2	ambiguous_practice	ambiguous_practice	0.0	preferred_right	3600.0	0.0		14.801650299981702	0.03369810001458973
0	8.612038900027983	stim	252		2	ambiguous_practice	ambiguous_practice	0.0	preferred_right	3600.0	0.0		14.835348399996292	0.033268600003793836
0	8.645307500031777	stim	253		2	ambiguous_practice	ambiguous_practice	0.0	preferred_right	3600.0	0.0		14.868617000000086	0.03351809998275712
0	8.678825600014534	stim	254		2	ambiguous_practice	ambiguous_practice	0.0	preferred_right	3600.0	0.0		14.902135099982843	0.03329469996970147
0	8.712120299984235	stim	255		2	ambiguous_practice	ambiguous_practice	0.0	preferred_right	3600.0	0.0		14.935429799952544	0.033803400001488626
0	8.745923699985724	stim	256		2	ambiguous_practice	ambiguous_practice	0.0	preferred_right	3600.0	0.0		14.969233199954033	0.03315240005031228
0	8.779076100036036	stim	257		2	ambiguous_practice	ambiguous_practice	0.0	preferred_right	3600.0	0.0		15.002385600004345	0.03319669998018071
0	8.812272800016217	stim	258		2	ambiguous_practice	ambiguous_practice	0.0	preferred_right	3600.0	0.0		15.035582299984526	0.03371709998464212
0	8.845989900000859	stim	259		2	ambiguous_practice	ambiguous_practice	0.0	preferred_right	3600.0	0.0		15.069299399969168	0.03409650002140552
0	8.880086400022265	stim	260		2	ambiguous_practice	ambiguous_practice	0.0	preferred_right	3600.0	0.0		15.103395899990574	0.03208869998343289
0	8.912175100005697	stim	261		2	ambiguous_practice	ambiguous_practice	0.0	preferred_right	3600.0	0.0		15.135484599974006	0.033621500013396144
0	8.945796600019094	stim	262		2	ambiguous_practice	ambiguous_practice	0.0	preferred_right	3600.0	0.0		15.169106099987403	0.03331349999643862
0	8.979110100015532	stim	263		2	ambiguous_practice	ambiguous_practice	0.0	preferred_right	3600.0	0.0		15.202419599983841	0.03349429997615516
0	9.012604399991687	stim	264		2	ambiguous_practice	ambiguous_practice	0.0	preferred_right	3600.0	0.0		15.235913899959996	0.03296030004275963
0	9.045564700034447	stim	265		2	ambiguous_practice	ambiguous_practice	0.0	preferred_right	3600.0	0.0		15.268874200002756	0.03378649998921901
0	9.079351200023666	stim	266		2	ambiguous_practice	ambiguous_practice	0.0	preferred_right	3600.0	0.0		15.302660699991975	0.033215300005394965
0	9.112566500029061	stim	267		2	ambiguous_practice	ambiguous_practice	0.0	preferred_right	3600.0	0.0		15.33587599999737	0.03319689998170361
0	9.145763400010765	stim	268		2	ambiguous_practice	ambiguous_practice	0.0	preferred_right	3600.0	0.0		15.369072899979074	0.03366219997406006
0	9.179425599984825	stim	269		2	ambiguous_practice	ambiguous_practice	0.0	preferred_right	3600.0	0.0		15.402735099953134	0.033286300022155046
0	9.21271190000698	stim	270		2	ambiguous_practice	ambiguous_practice	0.0	preferred_right	3600.0	0.0		15.436021399975289	0.03329870000015944
0	9.24601060000714	stim	271		2	ambiguous_practice	ambiguous_practice	0.0	preferred_right	3600.0	0.0		15.469320099975448	0.03333900001598522
0	9.279349600023124	stim	272		2	ambiguous_practice	ambiguous_practice	0.0	preferred_right	3600.0	0.0		15.502659099991433	0.033678999985568225
0	9.313028600008693	stim	273		2	ambiguous_practice	ambiguous_practice	0.0	preferred_right	3600.0	0.0		15.536338099977002	0.03318460000446066
0	9.346213200013153	stim	274		2	ambiguous_practice	ambiguous_practice	0.0	preferred_right	3600.0	0.0		15.569522699981462	0.03363000001991168
0	9.379843200033065	stim	275		2	ambiguous_practice	ambiguous_practice	0.0	preferred_right	3600.0	0.0		15.603152700001374	0.03369489999022335
0	9.413538100023288	stim	276		2	ambiguous_practice	ambiguous_practice	0.0	preferred_right	3600.0	0.0		15.636847599991597	0.03318159998161718
0	9.446719700004905	stim	277		2	ambiguous_practice	ambiguous_practice	0.0	preferred_right	3600.0	0.0		15.670029199973214	0.033264300029259175
0	9.479984000034165	stim	278		2	ambiguous_practice	ambiguous_practice	0.0	preferred_right	3600.0	0.0		15.703293500002474	0.03343069995753467
0	9.5134146999917	stim	279		2	ambiguous_practice	ambiguous_practice	0.0	preferred_right	3600.0	0.0		15.736724199960008	0.03270780004095286
0	9.546122500032652	stim	280		2	ambiguous_practice	ambiguous_practice	0.0	preferred_right	3600.0	0.0		15.769432000000961	0.033942699956241995
0	9.580065199988894	stim	281		2	ambiguous_practice	ambiguous_practice	0.0	preferred_right	3600.0	0.0		15.803374699957203	0.03366390004521236
0	9.613729100034107	stim	282		2	ambiguous_practice	ambiguous_practice	0.0	preferred_right	3600.0	0.0		15.837038600002415	0.033386999974027276
0	9.647116100008134	stim	283		2	ambiguous_practice	ambiguous_practice	0.0	preferred_right	3600.0	0.0		15.870425599976443	0.03350499999942258
0	9.680621100007556	stim	284		2	ambiguous_practice	ambiguous_practice	0.0	preferred_right	3600.0	0.0		15.903930599975865	0.04989620001288131
0	9.730517300020438	stim	285		2	ambiguous_practice	ambiguous_practice	0.0	preferred_right	3600.0	0.0		15.953826799988747	0.04971069999737665
0	9.780228000017814	stim	286		2	ambiguous_practice	ambiguous_practice	0.0	preferred_right	3600.0	0.0		16.003537499986123	0.033026999968569726
0	9.813254999986384	stim	287		2	ambiguous_practice	ambiguous_practice	0.0	preferred_right	3600.0	0.0		16.036564499954693	0.03399590001208708
0	9.847250899998471	stim	288		2	ambiguous_practice	ambiguous_practice	0.0	preferred_right	3600.0	0.0		16.07056039996678	0.03355829999782145
0	9.880809199996293	stim	289		2	ambiguous_practice	ambiguous_practice	0.0	preferred_right	3600.0	0.0		16.1041186999646	0.03315570001723245
0	9.913964900013525	stim	290		2	ambiguous_practice	ambiguous_practice	0.0	preferred_right	3600.0	0.0		16.137274399981834	0.03321000002324581
0	9.94717490003677	stim	291		2	ambiguous_practice	ambiguous_practice	0.0	preferred_right	3600.0	0.0		16.17048440000508	0.03360429999884218
0	9.980779200035613	stim	292		2	ambiguous_practice	ambiguous_practice	0.0	preferred_right	3600.0	0.0		16.204088700003922	0.03312999999616295
0	10.013909200031776	stim	293		2	ambiguous_practice	ambiguous_practice	0.0	preferred_right	3600.0	0.0		16.237218700000085	0.03361879999283701
0	10.047528000024613	stim	294		2	ambiguous_practice	ambiguous_practice	0.0	preferred_right	3600.0	0.0		16.270837499992922	0.033141199965029955
0	10.080669199989643	stim	295		2	ambiguous_practice	ambiguous_practice	0.0	preferred_right	3600.0	0.0		16.303978699957952	0.03388920001452789
0	10.11455840000417	stim	296		2	ambiguous_practice	ambiguous_practice	0.0	preferred_right	3600.0	0.0		16.33786789997248	0.03332530002808198
0	10.147883700032253	stim	297		2	ambiguous_practice	ambiguous_practice	0.0	preferred_right	3600.0	0.0		16.37119320000056	0.0333713999716565
0	10.18125510000391	stim	298		2	ambiguous_practice	ambiguous_practice	0.0	preferred_right	3600.0	0.0		16.40456459997222	0.03339799999957904
0	10.214653100003488	stim	299		2	ambiguous_practice	ambiguous_practice	0.0	preferred_right	3600.0	0.0		16.437962599971797	0.033787399996072054
0	10.24844049999956	stim	300		2	ambiguous_practice	ambiguous_practice	0.0	preferred_right	3600.0	0.0		16.47174999996787	0.0332664999878034
0	10.281706999987364	stim	301		2	ambiguous_practice	ambiguous_practice	0.0	preferred_right	3600.0	0.0		16.505016499955673	0.03275250003207475
0	10.314459500019439	stim	302		2	ambiguous_practice	ambiguous_practice	0.0	preferred_right	3600.0	0.0		16.537768999987748	0.03418399998918176
0	10.34864350000862	stim	303		2	ambiguous_practice	ambiguous_practice	0.0	preferred_right	3600.0	0.0		16.57195299997693	0.03340399998705834
0	10.382047499995679	stim	304		2	ambiguous_practice	ambiguous_practice	0.0	preferred_right	3600.0	0.0		16.605356999963988	0.033622800023294985
0	10.415670300018974	stim	305		2	ambiguous_practice	ambiguous_practice	0.0	preferred_right	3600.0	0.0		16.638979799987283	0.03331379999872297
0	10.448984100017697	stim	306		2	ambiguous_practice	ambiguous_practice	0.0	preferred_right	3600.0	0.0		16.672293599986006	0.03345589997479692
0	10.482439999992494	stim	307		2	ambiguous_practice	ambiguous_practice	0.0	preferred_right	3600.0	0.0		16.705749499960802	0.03327840002020821
0	10.515718400012702	stim	308		2	ambiguous_practice	ambiguous_practice	0.0	preferred_right	3600.0	0.0		16.73902789998101	0.033451099996455014
0	10.549169500009157	stim	309		2	ambiguous_practice	ambiguous_practice	0.0	preferred_right	3600.0	0.0		16.772478999977466	0.03275190002750605
0	10.581921400036663	stim	310		2	ambiguous_practice	ambiguous_practice	0.0	preferred_right	3600.0	0.0		16.80523090000497	0.033767899964004755
0	10.615689300000668	stim	311		2	ambiguous_practice	ambiguous_practice	0.0	preferred_right	3600.0	0.0		16.838998799968977	0.03325600002426654
0	10.648945300024934	stim	312		2	ambiguous_practice	ambiguous_practice	0.0	preferred_right	3600.0	0.0		16.872254799993243	0.03351489995839074
0	10.682460199983325	stim	313		2	ambiguous_practice	ambiguous_practice	0.0	preferred_right	3600.0	0.0		16.905769699951634	0.03314460004912689
0	10.715604800032452	stim	314		2	ambiguous_practice	ambiguous_practice	0.0	preferred_right	3600.0	0.0		16.93891430000076	0.03354609996313229
0	10.749150899995584	stim	315		2	ambiguous_practice	ambiguous_practice	0.0	preferred_right	3600.0	0.0		16.972460399963893	0.033369500015396625
0	10.78252040001098	stim	316		2	ambiguous_practice	ambiguous_practice	0.0	preferred_right	3600.0	0.0		17.00582989997929	0.03336830000625923
0	10.81588870001724	stim	317		2	ambiguous_practice	ambiguous_practice	0.0	preferred_right	3600.0	0.0		17.03919819998555	0.033272999979089946
0	10.84916169999633	stim	318		2	ambiguous_practice	ambiguous_practice	0.0	preferred_right	3600.0	0.0		17.07247119996464	0.03373930003726855
0	10.882901000033598	stim	319		2	ambiguous_practice	ambiguous_practice	0.0	preferred_right	3600.0	0.0		17.106210500001907	0.033364799979608506
0	10.916265800013207	stim	320		2	ambiguous_practice	ambiguous_practice	0.0	preferred_right	3600.0	0.0		17.139575299981516	0.033408000017516315
0	10.949673800030723	stim	321		2	ambiguous_practice	ambiguous_practice	0.0	preferred_right	3600.0	0.0		17.172983299999032	0.03338529996108264
0	10.983059099991806	stim	322		2	ambiguous_practice	ambiguous_practice	0.0	preferred_right	3600.0	0.0		17.206368599960115	0.033270000014454126
0	11.01632910000626	stim	323		2	ambiguous_practice	ambiguous_practice	0.0	preferred_right	3600.0	0.0		17.23963859997457	0.03315570001723245
0	11.049484800023492	stim	324		2	ambiguous_practice	ambiguous_practice	0.0	preferred_right	3600.0	0.0		17.2727942999918	0.03301610000198707
0	11.08250090002548	stim	325		2	ambiguous_practice	ambiguous_practice	0.0	preferred_right	3600.0	0.0		17.30581039999379	0.03381809999700636
0	11.116319000022486	stim	326		2	ambiguous_practice	ambiguous_practice	0.0	preferred_right	3600.0	0.0		17.339628499990795	0.0334090999676846
0	11.14972809999017	stim	327		2	ambiguous_practice	ambiguous_practice	0.0	preferred_right	3600.0	0.0		17.37303759995848	0.0333600000012666
0	11.183088099991437	stim	328		2	ambiguous_practice	ambiguous_practice	0.0	preferred_right	3600.0	0.0		17.406397599959746	0.033230200002435595
0	11.216318299993873	stim	329		2	ambiguous_practice	ambiguous_practice	0.0	preferred_right	3600.0	0.0		17.43962779996218	0.03347110003232956
0	11.249789400026202	stim	330		0	ambiguous_practice	ambiguous_practice	0.0	preferred_right	3600.0	0.0		17.47309889999451	4.903414500004146
0	16.15320390003035	ambiguous_practice	330	y	2	ambiguous_practice	ambiguous_practice	0.0	preferred_right	3600.0	0.0	0.10563019994879141	22.376513399998657	-4.853884400043171
0	11.299319499987178	stim	331		2	ambiguous_practice	ambiguous_practice	0.0	preferred_right	3600.0	0.0		17.522628999955487	0.03382210002746433
0	11.333141600014642	stim	332		2	ambiguous_practice	ambiguous_practice	0.0	preferred_right	3600.0	0.0		17.55645109998295	0.03335069998865947
0	11.366492300003301	stim	333		2	ambiguous_practice	ambiguous_practice	0.0	preferred_right	3600.0	0.0		17.58980179997161	0.03327399998670444
0	11.399766299990006	stim	334		2	ambiguous_practice	ambiguous_practice	0.0	preferred_right	3600.0	0.0		17.623075799958315	0.033169500005897135
0	11.432935799995903	stim	335		2	ambiguous_practice	ambiguous_practice	0.0	preferred_right	3600.0	0.0		17.656245299964212	0.03347710001980886
0	11.466412900015712	stim	336		2	ambiguous_practice	ambiguous_practice	0.0	preferred_right	3600.0	0.0		17.68972239998402	0.033468700014054775
0	11.499881600029767	stim	337		2	ambiguous_practice	ambiguous_practice	0.0	preferred_right	3600.0	0.0		17.723191099998076	0.03270019998308271
0	11.53258180001285	stim	338		2	ambiguous_practice	ambiguous_practice	0.0	preferred_right	3600.0	0.0		17.75589129998116	0.033898400026373565
0	11.566480200039223	stim	339		2	ambiguous_practice	ambiguous_practice	0.0	preferred_right	3600.0	0.0		17.789789700007532	0.03339109994703904
0	11.599871299986262	stim	340		2	ambiguous_practice	ambiguous_practice	0.0	preferred_right	3600.0	0.0		17.82318079995457	0.0330254000145942
0	11.632896700000856	stim	341		2	ambiguous_practice	ambiguous_practice	0.0	preferred_right	3600.0	0.0		17.856206199969165	0.03406790003646165
0	11.666964600037318	stim	342		2	ambiguous_practice	ambiguous_practice	0.0	preferred_right	3600.0	0.0		17.890274100005627	0.033428800001274794
0	11.700393400038593	stim	343		2	ambiguous_practice	ambiguous_practice	0.0	preferred_right	3600.0	0.0		17.9237029000069	0.03331410000100732
0	11.7337075000396	stim	344		2	ambiguous_practice	ambiguous_practice	0.0	preferred_right	3600.0	0.0		17.95701700000791	0.03322389995446429
0	11.766931399994064	stim	345		2	ambiguous_practice	ambiguous_practice	0.0	preferred_right	3600.0	0.0		17.990240899962373	0.03287570003885776
0	11.799807100032922	stim	346		2	ambiguous_practice	ambiguous_practice	0.0	preferred_right	3600.0	0.0		18.02311660000123	0.03420539997750893
0	11.83401250001043	stim	347		2	ambiguous_practice	ambiguous_practice	0.0	preferred_right	3600.0	0.0		18.05732199997874	0.033200700010638684
0	11.86721320002107	stim	348		2	ambiguous_practice	ambiguous_practice	0.0	preferred_right	3600.0	0.0		18.09052269998938	0.033326399978250265
0	11.90053959999932	stim	349		2	ambiguous_practice	ambiguous_practice	0.0	preferred_right	3600.0	0.0		18.12384909996763	0.03342630004044622
0	11.933965900039766	stim	350		2	ambiguous_practice	ambiguous_practice	0.0	preferred_right	3600.0	0.0		18.157275400008075	0.033281799987889826
0	11.967247700027656	stim	351		2	ambiguous_practice	ambiguous_practice	0.0	preferred_right	3600.0	0.0		18.190557199995965	0.03325479995692149
0	12.000502499984577	stim	352		0	ambiguous_practice	ambiguous_practice	0.0	preferred_right	3600.0	0.0		18.223811999952886	4.950531900045462
0	16.95103440003004	ambiguous_practice	352	n	2	ambiguous_practice	ambiguous_practice	0.0	preferred_right	3600.0	0.0	0.0790972999529913	23.174343899998348	-4.900924300018232
0	12.050110100011807	stim	353		2	ambiguous_practice	ambiguous_practice	0.0	preferred_right	3600.0	0.0		18.273419599980116	0.03433609998319298
0	12.084446199995	stim	354		2	ambiguous_practice	ambiguous_practice	0.0	preferred_right	3600.0	0.0		18.30775569996331	0.033399200008716434
0	12.117845400003716	stim	355		2	ambiguous_practice	ambiguous_practice	0.0	preferred_right	3600.0	0.0		18.341154899972025	0.033076099993195385
0	12.150921499996912	stim	356		2	ambiguous_practice	ambiguous_practice	0.0	preferred_right	3600.0	0.0		18.37423099996522	0.03359410003758967
0	12.184515600034501	stim	357		2	ambiguous_practice	ambiguous_practice	0.0	preferred_right	3600.0	0.0		18.40782510000281	0.033396199985872954
0	12.217911800020374	stim	358		2	ambiguous_practice	ambiguous_practice	0.0	preferred_right	3600.0	0.0		18.441221299988683	0.032815099984873086
0	12.250726900005247	stim	359		2	ambiguous_practice	ambiguous_practice	0.0	preferred_right	3600.0	0.0		18.474036399973556	0.0344207999878563
0	12.285147699993104	stim	360		2	ambiguous_practice	ambiguous_practice	0.0	preferred_right	3600.0	0.0		18.508457199961413	0.032685000041965395
0	12.31783270003507	stim	361		2	ambiguous_practice	ambiguous_practice	0.0	preferred_right	3600.0	0.0		18.541142200003378	0.0338186000008136
0	12.351651300035883	stim	362		2	ambiguous_practice	ambiguous_practice	0.0	preferred_right	3600.0	0.0		18.57496080000419	0.03337149997241795
0	12.3850228000083	stim	363		2	ambiguous_practice	ambiguous_practice	0.0	preferred_right	3600.0	0.0		18.60833229997661	0.0331500000320375
0	12.418172800040338	stim	364		2	ambiguous_practice	ambiguous_practice	0.0	preferred_right	3600.0	0.0		18.641482300008647	0.033218099968507886
0	12.451390900008846	stim	365		2	ambiguous_practice	ambiguous_practice	0.0	preferred_right	3600.0	0.0		18.674700399977155	0.03392239997629076
0	12.485313299985137	stim	366		2	ambiguous_practice	ambiguous_practice	0.0	preferred_right	3600.0	0.0		18.708622799953446	0.03333460004068911
0	12.518647900025826	stim	367		2	ambiguous_practice	ambiguous_practice	0.0	preferred_right	3600.0	0.0		18.741957399994135	0.033331000013276935
0	12.551978900039103	stim	368		0	ambiguous_practice	ambiguous_practice	0.0	preferred_right	3600.0	0.0		18.775288400007412	4.961135899939109
0	17.51311479997821	ambiguous_practice	368	n	2	ambiguous_practice	ambiguous_practice	0.0	preferred_right	3600.0	0.0	0.058208400034345686	23.73642429994652	-4.911593199940398
0	12.601521600037813	stim	369		2	ambiguous_practice	ambiguous_practice	0.0	preferred_right	3600.0	0.0		18.824831100006122	0.03363409999292344
0	12.635155700030737	stim	370		2	ambiguous_practice	ambiguous_practice	0.0	preferred_right	3600.0	0.0		18.858465199999046	0.03370669996365905
0	12.668862399994396	stim	371		2	ambiguous_practice	ambiguous_practice	0.0	preferred_right	3600.0	0.0		18.892171899962705	0.03334040002664551
0	12.702202800021041	stim	372		2	ambiguous_practice	ambiguous_practice	0.0	preferred_right	3600.0	0.0		18.92551229998935	0.033563399978447706
0	12.735766199999489	stim	373		2	ambiguous_practice	ambiguous_practice	0.0	preferred_right	3600.0	0.0		18.959075699967798	0.033705800015013665
0	12.769472000014503	stim	374		2	ambiguous_practice	ambiguous_practice	0.0	preferred_right	3600.0	0.0		18.99278149998281	0.033247900020796806
0	12.8027199000353	stim	375		2	ambiguous_practice	ambiguous_practice	0.0	preferred_right	3600.0	0.0		19.02602940000361	0.03282889997353777
0	12.835548800008837	stim	376		0	ambiguous_practice	ambiguous_practice	0.0	preferred_right	3600.0	0.0		19.058858299977146	4.941591100010555
0	17.777139900019392	ambiguous_practice	376	n	2	ambiguous_practice	ambiguous_practice	0.0	preferred_right	3600.0	0.0	0.06846669997321442	24.0004493999877	-4.89098860003287
0	12.886151299986523	stim	377		2	ambiguous_practice	ambiguous_practice	0.0	preferred_right	3600.0	0.0		19.10946079995483	0.03323860000818968
0	12.919389899994712	stim	378		2	ambiguous_practice	ambiguous_practice	0.0	preferred_right	3600.0	0.0		19.14269939996302	0.03370530001120642
0	12.953095200005919	stim	379		2	ambiguous_practice	ambiguous_practice	0.0	preferred_right	3600.0	0.0		19.176404699974228	0.033523400023113936
0	12.986618600029033	stim	380		2	ambiguous_practice	ambiguous_practice	0.0	preferred_right	3600.0	0.0		19.20992809999734	0.03363849996821955
0	13.020257099997252	stim	381		2	ambiguous_practice	ambiguous_practice	0.0	preferred_right	3600.0	0.0		19.24356659996556	0.03380530001595616
0	13.054062400013208	stim	382		2	ambiguous_practice	ambiguous_practice	0.0	preferred_right	3600.0	0.0		19.277371899981517	0.03271990001667291
0	13.086782300029881	stim	383		2	ambiguous_practice	ambiguous_practice	0.0	preferred_right	3600.0	0.0		19.31009179999819	0.03381299995817244
0	13.120595299988054	stim	384		2	ambiguous_practice	ambiguous_practice	0.0	preferred_right	3600.0	0.0		19.343904799956363	0.03349460003664717
0	13.154089900024701	stim	385		2	ambiguous_practice	ambiguous_practice	0.0	preferred_right	3600.0	0.0		19.37739939999301	0.03346050000982359
0	13.187550400034525	stim	386		0	ambiguous_practice	ambiguous_practice	0.0	preferred_right	3600.0	0.0		19.410859900002833	4.9586055999970995
0	18.146156000031624	ambiguous_practice	386	space	2	ambiguous_practice	ambiguous_practice	0.0	preferred_right	3600.0	0.0	0.05313809996005148	24.369465499999933	-4.9085405000369065
0	13.237615499994718	stim	387		0	ambiguous_practice	ambiguous_practice	0.0	preferred_right	3600.0	0.0		19.460924999963026	4.97339609998744
0	18.211011599982157	ambiguous_practice	387	y	2	ambiguous_practice	ambiguous_practice	0.0	preferred_right	3600.0	0.0	0.06701320002321154	24.434321099950466	-4.917109599977266
0	13.293902000004891	stim	388		2	ambiguous_practice	ambiguous_practice	0.0	preferred_right	3600.0	0.0		19.5172114999732	0.04324620001716539
0	13.337148200022057	stim	389		0	ambiguous_practice	ambiguous_practice	0.0	preferred_right	3600.0	0.0		19.560457699990366	4.964585400011856
0	18.301733600033913	ambiguous_practice	389	n	2	ambiguous_practice	ambiguous_practice	0.0	preferred_right	3600.0	0.0	0.07511340000201017	24.52504310000222	-4.930707700026687
0	13.371025900007226	stim	390		2	ambiguous_practice	ambiguous_practice	0.0	preferred_right	3600.0	0.0		19.594335399975535	0.03320920001715422
0	13.40423510002438	stim	391		2	ambiguous_practice	ambiguous_practice	0.0	preferred_right	3600.0	0.0		19.62754459999269	0.033711600000970066
0	13.43794670002535	stim	392		2	ambiguous_practice	ambiguous_practice	0.0	preferred_right	3600.0	0.0		19.66125619999366	0.03350829996634275
0	13.471454999991693	stim	393		2	ambiguous_practice	ambiguous_practice	0.0	preferred_right	3600.0	0.0		19.69476449996	0.03300270001636818
0	13.50445770000806	stim	394		0	ambiguous_practice	ambiguous_practice	0.0	preferred_right	3600.0	0.0		19.72776719997637	4.939596800017171
0	18.44405450002523	ambiguous_practice	394	y	0	ambiguous_practice	ambiguous_practice	0.0	preferred_right	3600.0	0.0	0.08374779997393489	24.66736399999354	0.003820299985818565
0	18.44787480001105	ambiguous_practice	394	n	2	ambiguous_practice	ambiguous_practice	0.0	preferred_right	3600.0	0.0	0.08436470001470298	24.67118429997936	-4.893517300020903
0	13.554357499990147	stim	395		2	ambiguous_practice	ambiguous_practice	0.0	preferred_right	3600.0	0.0		19.777666999958456	0.03332740004407242
0	13.587684900034219	stim	396		2	ambiguous_practice	ambiguous_practice	0.0	preferred_right	3600.0	0.0		19.810994400002528	0.03394629998365417
0	13.621631200017873	stim	397		0	ambiguous_practice	ambiguous_practice	0.0	preferred_right	3600.0	0.0		19.844940699986182	4.971195699996315
0	18.592826900014188	ambiguous_practice	397	y	0	ambiguous_practice	ambiguous_practice	0.0	preferred_right	3600.0	0.0	0.05699319997802377	24.816136399982497	-0.015569199982564896
0	18.577257700031623	ambiguous_practice	397	n	2	ambiguous_practice	ambiguous_practice	0.0	preferred_right	3600.0	0.0	0.08304820000194013	24.800567199999932	-4.905712500039954
0	13.67154519999167	stim	398		2	ambiguous_practice	ambiguous_practice	0.0	preferred_right	3600.0	0.0		19.89485469995998	0.033368000003974885
0	13.704913199995644	stim	399		2	ambiguous_practice	ambiguous_practice	0.0	preferred_right	3600.0	0.0		19.928222699963953	0.03331120003713295
0	13.738224400032777	stim	400		2	ambiguous_practice	ambiguous_practice	0.0	preferred_right	3600.0	0.0		19.961533900001086	0.03332679998129606
0	13.771551200014073	stim	401		0	ambiguous_practice	ambiguous_practice	0.0	preferred_right	3600.0	0.0		19.994860699982382	4.938804399978835
0	18.71035559999291	ambiguous_practice	401	n	0	ambiguous_practice	ambiguous_practice	0.0	preferred_right	3600.0	0.0	0.07776090002153069	24.933665099961217	0.004089499998372048
0	18.71444509999128	ambiguous_practice	401	y	2	ambiguous_practice	ambiguous_practice	0.0	preferred_right	3600.0	0.0	0.06837049999739975	24.93775459995959	-4.8928770999773405
0	13.82156800001394	stim	402		2	ambiguous_practice	ambiguous_practice	0.0	preferred_right	3600.0	0.0		20.04487749998225	0.03323090000776574
0	13.854798900021706	stim	403		2	ambiguous_practice	ambiguous_practice	0.0	preferred_right	3600.0	0.0		20.078108399990015	0.03386179998051375
0	13.88866070000222	stim	404		0	ambiguous_practice	ambiguous_practice	0.0	preferred_right	3600.0	0.0		20.11197019997053	4.958021899976302
0	18.84668259997852	ambiguous_practice	404	y	0	ambiguous_practice	ambiguous_practice	0.0	preferred_right	3600.0	0.0	0.07395630003884435	25.06999209994683	-0.004968099994584918
0	18.841714499983937	ambiguous_practice	404	n	2	ambiguous_practice	ambiguous_practice	0.0	preferred_right	3600.0	0.0	0.08441850001690909	25.065023999952246	-4.902915199985728
0	13.938799299998209	stim	405		2	ambiguous_practice	ambiguous_practice	0.0	preferred_right	3600.0	0.0		20.162108799966518	0.03328030003467575
0	13.972079600032885	stim	406		2	ambiguous_practice	ambiguous_practice	0.0	preferred_right	3600.0	0.0		20.195389100001194	0.03334550000727177
0	14.005425100040156	stim	407		2	ambiguous_practice	ambiguous_practice	0.0	preferred_right	3600.0	0.0		20.228734600008465	0.03371249994961545
0	14.039137599989772	stim	408		0	ambiguous_practice	ambiguous_practice	0.0	preferred_right	3600.0	0.0		20.26244709995808	4.950656900007743
0	18.989794499997515	ambiguous_practice	408	n	0	ambiguous_practice	ambiguous_practice	0.0	preferred_right	3600.0	0.0	0.06844170001568273	25.213103999965824	0.005635100009385496
0	18.9954296000069	ambiguous_practice	408	y	2	ambiguous_practice	ambiguous_practice	0.0	preferred_right	3600.0	0.0	0.0733213999774307	25.21873909997521	-4.88963569997577
0	14.10579390003113	stim	409		2	ambiguous_practice	ambiguous_practice	0.0	preferred_right	3600.0	0.0		20.32910339999944	0.03354479995323345
0	14.139338699984364	stim	410		2	ambiguous_practice	ambiguous_practice	0.0	preferred_right	3600.0	0.0		20.362648199952673	0.03324280004017055
0	14.172581500024535	stim	411		0	ambiguous_practice	ambiguous_practice	0.0	preferred_right	3600.0	0.0		20.395890999992844	4.959145799977705
0	19.13172730000224	ambiguous_practice	411	n	2	ambiguous_practice	ambiguous_practice	0.0	preferred_right	3600.0	0.0	0.07374580000760034	25.35503679997055	-4.924855099990964
0	14.206872200011276	stim	412		0	ambiguous_practice	ambiguous_practice	0.0	preferred_right	3600.0	0.0		20.430181699979585	4.940394899982493
0	19.14726709999377	ambiguous_practice	412	y	2	ambiguous_practice	ambiguous_practice	0.0	preferred_right	3600.0	0.0	0.08010760002071038	25.370576599962078	-4.89117499999702
0	14.25609209999675	stim	413		2	ambiguous_practice	ambiguous_practice	0.0	preferred_right	3600.0	0.0		20.47940159996506	0.03324600000632927
0	14.289338100003079	stim	414		2	ambiguous_practice	ambiguous_practice	0.0	preferred_right	3600.0	0.0		20.512647599971388	0.03330750000895932
0	14.322645600012038	stim	415		0	ambiguous_practice	ambiguous_practice	0.0	preferred_right	3600.0	0.0		20.545955099980347	4.949956799973734
0	19.27260239998577	ambiguous_practice	415	n	0	ambiguous_practice	ambiguous_practice	0.0	preferred_right	3600.0	0.0	0.06845990003785118	25.49591189995408	0.026558300014585257
0	19.299160700000357	ambiguous_practice	415	y	2	ambiguous_practice	ambiguous_practice	0.0	preferred_right	3600.0	0.0	0.06313850003061816	25.522470199968666	-4.925795799994376
0	14.373364900005981	stim	416		2	ambiguous_practice	ambiguous_practice	0.0	preferred_right	3600.0	0.0		20.59667439997429	0.03281609999248758
0	14.406180999998469	stim	417		2	ambiguous_practice	ambiguous_practice	0.0	preferred_right	3600.0	0.0		20.629490499966778	0.0334780000266619
0	14.43965900002513	stim	418		2	ambiguous_practice	ambiguous_practice	0.0	preferred_right	3600.0	0.0		20.66296849999344	0.033318899979349226
0	14.47297790000448	stim	419		0	ambiguous_practice	ambiguous_practice	0.0	preferred_right	3600.0	0.0		20.69628739997279	4.949820699985139
0	19.42279859998962	ambiguous_practice	419	n	0	ambiguous_practice	ambiguous_practice	0.0	preferred_right	3600.0	0.0	0.06856030004564673	25.646108099957928	0.006289400043897331
0	19.429088000033516	ambiguous_practice	419	y	2	ambiguous_practice	ambiguous_practice	0.0	preferred_right	3600.0	0.0	0.06745809997664765	25.652397500001825	-4.9061307000229135
0	14.522957300010603	stim	420		2	ambiguous_practice	ambiguous_practice	0.0	preferred_right	3600.0	0.0		20.746266799978912	0.033083599992096424
0	14.5560409000027	stim	421		2	ambiguous_practice	ambiguous_practice	0.0	preferred_right	3600.0	0.0		20.77935039997101	0.03321920003509149
0	14.58926010003779	stim	422		2	ambiguous_practice	ambiguous_practice	0.0	preferred_right	3600.0	0.0		20.8125696000061	0.033689299947582185
0	14.622949399985373	stim	423		0	ambiguous_practice	ambiguous_practice	0.0	preferred_right	3600.0	0.0		20.846258899953682	4.94276040000841
0	19.565709799993783	ambiguous_practice	423	y	0	ambiguous_practice	ambiguous_practice	0.0	preferred_right	3600.0	0.0	0.0736142999958247	25.789019299962092	-0.0040623999666422606
0	19.56164740002714	ambiguous_practice	423	n	2	ambiguous_practice	ambiguous_practice	0.0	preferred_right	3600.0	0.0	0.09414479997940361	25.78495689999545	-4.8883709000074305
0	14.67327650001971	stim	424		2	ambiguous_practice	ambiguous_practice	0.0	preferred_right	3600.0	0.0		20.89658599998802	0.033230200002435595
0	14.706506700022146	stim	425		2	ambiguous_practice	ambiguous_practice	0.0	preferred_right	3600.0	0.0		20.929816199990455	0.033348499971907586
0	14.739855199994054	stim	426		0	ambiguous_practice	ambiguous_practice	0.0	preferred_right	3600.0	0.0		20.963164699962363	4.941837500024121
0	19.681692700018175	ambiguous_practice	426	n	0	ambiguous_practice	ambiguous_practice	0.0	preferred_right	3600.0	0.0	0.07352759997593239	25.905002199986484	0.010207599960267544
0	19.691900299978442	ambiguous_practice	426	y	2	ambiguous_practice	ambiguous_practice	0.0	preferred_right	3600.0	0.0	0.08422310004243627	25.91520979994675	-4.899508899950888
0	14.792391400027554	stim	427		2	ambiguous_practice	ambiguous_practice	0.0	preferred_right	3600.0	0.0		21.015700899995863	0.03137479996075854
0	14.823766199988313	stim	428		2	ambiguous_practice	ambiguous_practice	0.0	preferred_right	3600.0	0.0		21.047075699956622	0.0333231000113301
0	14.857089299999643	stim	429		0	ambiguous_practice	ambiguous_practice	0.0	preferred_right	3600.0	0.0		21.080398799967952	4.957995900011156
0	19.8150852000108	ambiguous_practice	429	n	2	ambiguous_practice	ambiguous_practice	0.0	preferred_right	3600.0	0.0	0.07764510001288727	26.038394699979108	-4.9246750000165775
0	14.890410199994221	stim	430		0	ambiguous_practice	ambiguous_practice	0.0	preferred_right	3600.0	0.0		21.11371969996253	4.956446500029415
0	19.846856700023636	ambiguous_practice	430	y	2	ambiguous_practice	ambiguous_practice	0.0	preferred_right	3600.0	0.0	0.08404819999122992	26.070166199991945	-4.906296300003305
0	14.940560400020331	stim	431		2	ambiguous_practice	ambiguous_practice	0.0	preferred_right	3600.0	0.0		21.16386989998864	0.033381299988832325
0	14.973941700009163	stim	432		2	ambiguous_practice	ambiguous_practice	0.0	preferred_right	3600.0	0.0		21.197251199977472	0.03340160002699122
0	15.007343300036155	stim	433		0	ambiguous_practice	ambiguous_practice	0.0	preferred_right	3600.0	0.0		21.230652800004464	4.932713199988939
0	19.940056500025094	ambiguous_practice	433	n	2	ambiguous_practice	ambiguous_practice	0.0	preferred_right	3600.0	0.0	0.09068059996934608	26.163365999993403	-4.8823739000363275
0	15.057682599988766	stim	434		2	ambiguous_practice	ambiguous_practice	0.0	preferred_right	3600.0	0.0		21.280992099957075	0.03349010000238195
0	15.091172699991148	stim	435		2	ambiguous_practice	ambiguous_practice	0.0	preferred_right	3600.0	0.0		21.314482199959457	0.03321290004532784
0	15.124385600036476	stim	436		0	ambiguous_practice	ambiguous_practice	0.0	preferred_right	3600.0	0.0		21.347695100004785	4.976895599975251
0	20.101281200011726	ambiguous_practice	436	n	2	ambiguous_practice	ambiguous_practice	0.0	preferred_right	3600.0	0.0	0.06356979999691248	26.324590699980035	-4.94334220001474
0	15.157938999996986	stim	437		2	ambiguous_practice	ambiguous_practice	0.0	preferred_right	3600.0	0.0		21.381248499965295	0.033898500027135015
0	15.191837500024121	stim	438		0	ambiguous_practice	ambiguous_practice	0.0	preferred_right	3600.0	0.0		21.41514699999243	4.935769799980335
0	20.127607300004456	ambiguous_practice	438	y	2	ambiguous_practice	ambiguous_practice	0.0	preferred_right	3600.0	0.0	0.07416760001797229	26.350916799972765	-4.885825100005604
0	15.241782199998852	stim	439		2	ambiguous_practice	ambiguous_practice	0.0	preferred_right	3600.0	0.0		21.46509169996716	0.03320569999050349
0	15.274987899989355	stim	440		0	ambiguous_practice	ambiguous_practice	0.0	preferred_right	3600.0	0.0		21.498297399957664	4.961818300012965
0	20.23680620000232	ambiguous_practice	440	n	2	ambiguous_practice	ambiguous_practice	0.0	preferred_right	3600.0	0.0	0.07392920000711456	26.46011569997063	-4.910258399962913
0	15.326547800039407	stim	441		0	ambiguous_practice	ambiguous_practice	0.0	preferred_right	3600.0	0.0		21.549857300007716	4.941856199991889
0	20.268404000031296	ambiguous_practice	441	y	2	ambiguous_practice	ambiguous_practice	0.0	preferred_right	3600.0	0.0	0.06352749996585771	26.491713499999605	-4.891609999991488
0	15.376794000039808	stim	442		2	ambiguous_practice	ambiguous_practice	0.0	preferred_right	3600.0	0.0		21.600103500008117	0.03477359999669716
0	15.411567600036506	stim	443		2	ambiguous_practice	ambiguous_practice	0.0	preferred_right	3600.0	0.0		21.634877100004815	0.03379869996570051
0	15.445366300002206	stim	444		2	ambiguous_practice	ambiguous_practice	0.0	preferred_right	3600.0	0.0		21.668675799970515	0.033455500029958785
0	15.478821800032165	stim	445		0	ambiguous_practice	ambiguous_practice	0.0	preferred_right	3600.0	0.0		21.702131300000474	4.89241479994962
0	20.371236599981785	ambiguous_practice	445	y	2	ambiguous_practice	ambiguous_practice	0.0	preferred_right	3600.0	0.0	0.127096000011079	26.594546099950094	-4.844556399970315
0	15.52668020001147	stim	446		2	ambiguous_practice	ambiguous_practice	0.0	preferred_right	3600.0	0.0		21.74998969997978	0.03476770000997931
0	15.561447900021449	stim	447		0	ambiguous_practice	ambiguous_practice	0.0	preferred_right	3600.0	0.0		21.784757399989758	4.804553299967665
0	20.366001199989114	ambiguous_practice	447	n	2	ambiguous_practice	ambiguous_practice	0.0	preferred_right	3600.0	0.0	0.2172563000349328	26.589310699957423	-4.753776300000027
0	15.612224899989087	stim	448		2	ambiguous_practice	ambiguous_practice	0.0	preferred_right	3600.0	0.0		21.835534399957396	0.033163700019940734
0	15.645388600009028	stim	449		2	ambiguous_practice	ambiguous_practice	0.0	preferred_right	3600.0	0.0		21.868698099977337	0.03347680001752451
0	15.678865400026552	stim	450		2	ambiguous_practice	ambiguous_practice	0.0	preferred_right	3600.0	0.0		21.90217489999486	0.03304000000935048
0	15.711905400035903	stim	451		2	ambiguous_practice	ambiguous_practice	0.0	preferred_right	3600.0	0.0		21.935214900004212	0.03391679999185726
0	15.74582220002776	stim	452		2	ambiguous_practice	ambiguous_practice	0.0	preferred_right	3600.0	0.0		21.96913169999607	0.03293039998970926
0	15.77875260001747	stim	453		2	ambiguous_practice	ambiguous_practice	0.0	preferred_right	3600.0	0.0		22.00206209998578	0.03348270000424236
0	15.812235300021712	stim	454		2	ambiguous_practice	ambiguous_practice	0.0	preferred_right	3600.0	0.0		22.03554479999002	0.032613699964713305
0	15.844848999986425	stim	455		2	ambiguous_practice	ambiguous_practice	0.0	preferred_right	3600.0	0.0		22.068158499954734	0.03390180005226284
0	15.878750800038688	stim	456		2	ambiguous_practice	ambiguous_practice	0.0	preferred_right	3600.0	0.0		22.102060300006997	0.03295429999707267
0	15.91170510003576	stim	457		0	ambiguous_practice	ambiguous_practice	0.0	preferred_right	3600.0	0.0		22.13501460000407	4.91969979996793
0	20.83140490000369	ambiguous_practice	457	escape	2	ambiguous_practice	ambiguous_practice	0.0	preferred_right	3600.0	0.0	0.08892599999671802	27.054714399972	-4.867808400013018
0	15.963596499990672	stim	458		2	ambiguous_practice	ambiguous_practice	0.0	preferred_right	3600.0	0.0		22.18690599995898	0.031656700011808425
0	15.99525320000248	stim	459		2	ambiguous_practice	ambiguous_practice	0.0	preferred_right	3600.0	0.0		22.21856269997079	0.033496899995952845
0	16.028750099998433	stim	460		2	ambiguous_practice	ambiguous_practice	0.0	preferred_right	3600.0	0.0		22.252059599966742	0.033356100029777735
0	16.06210620002821	stim	461		2	ambiguous_practice	ambiguous_practice	0.0	preferred_right	3600.0	0.0		22.28541569999652	0.03346810000948608
0	16.095574300037697	stim	462		2	ambiguous_practice	ambiguous_practice	0.0	preferred_right	3600.0	0.0		22.318883800006006	0.03337429999373853
0	16.128948600031435	stim	463		2	ambiguous_practice	ambiguous_practice	0.0	preferred_right	3600.0	0.0		22.352258099999744	0.033184300002176315
0	16.162132900033612	stim	464		2	ambiguous_practice	ambiguous_practice	0.0	preferred_right	3600.0	0.0		22.38544240000192	0.033460999955423176
0	16.195593899989035	stim	465		2	ambiguous_practice	ambiguous_practice	0.0	preferred_right	3600.0	0.0		22.418903399957344	0.03350320004392415
0	16.22909710003296	stim	466		2	ambiguous_practice	ambiguous_practice	0.0	preferred_right	3600.0	0.0		22.452406600001268	0.03361429995857179
0	16.26271139999153	stim	467		2	ambiguous_practice	ambiguous_practice	0.0	preferred_right	3600.0	0.0		22.48602089995984	0.032945800048764795
0	16.295657200040296	stim	468		0	ambiguous_practice	ambiguous_practice	0.0	preferred_right	3600.0	0.0		22.518966700008605	4.93259699997725
0	21.228254200017545	ambiguous_practice	468	escape	2	ambiguous_practice	ambiguous_practice	0.0	preferred_right	3600.0	0.0	0.09081019996665418	27.451563699985854	-4.882100899994839
0	16.346153300022706	stim	469		2	ambiguous_practice	ambiguous_practice	0.0	preferred_right	3600.0	0.0		22.569462799991015	0.03283400001237169
0	16.378987300035078	stim	470		2	ambiguous_practice	ambiguous_practice	0.0	preferred_right	3600.0	0.0		22.602296800003387	0.033603499992750585
0	16.41259080002783	stim	471		2	ambiguous_practice	ambiguous_practice	0.0	preferred_right	3600.0	0.0		22.635900299996138	0.033656899991910905
0	16.44624770001974	stim	472		2	ambiguous_practice	ambiguous_practice	0.0	preferred_right	3600.0	0.0		22.66955719998805	0.033307300007436424
0	16.479555000027176	stim	473		0	ambiguous_practice	ambiguous_practice	0.0	preferred_right	3600.0	0.0		22.702864499995485	4.913245300005656
0	21.39280030003283	ambiguous_practice	473	escape	2	ambiguous_practice	ambiguous_practice	0.0	preferred_right	3600.0	0.0	0.12129809998441488	27.61610980000114	-4.879778400005307
0	16.513021900027525	stim	474		2	ambiguous_practice	ambiguous_practice	0.0	preferred_right	3600.0	0.0		22.736331399995834	0.033433099975809455
0	16.546455000003334	stim	475		2	ambiguous_practice	ambiguous_practice	0.0	preferred_right	3600.0	0.0		22.769764499971643	0.03313450003042817
0	16.579589500033762	stim	476		2	ambiguous_practice	ambiguous_practice	0.0	preferred_right	3600.0	0.0		22.80289900000207	0.03388989996165037
0	16.613479399995413	stim	477		2	ambiguous_practice	ambiguous_practice	0.0	preferred_right	3600.0	0.0		22.83678889996372	0.033410800038836896
0	16.64689020003425	stim	478		0	ambiguous_practice	ambiguous_practice	0.0	preferred_right	3600.0	0.0		22.87019970000256	4.926152399973944
0	21.573042600008193	ambiguous_practice	478	escape	2	ambiguous_practice	ambiguous_practice	0.0	preferred_right	3600.0	0.0	0.11146490002283826	27.796352099976502	-4.8928756000241265
0	16.680166999984067	stim	479		2	ambiguous_practice	ambiguous_practice	0.0	preferred_right	3600.0	0.0		22.903476499952376	0.033547500032000244
0	16.713714500016067	stim	480		2	ambiguous_practice	ambiguous_practice	0.0	preferred_right	3600.0	0.0		22.937023999984376	0.03344139998080209
0	16.74715589999687	stim	481		2	ambiguous_practice	ambiguous_practice	0.0	preferred_right	3600.0	0.0		22.970465399965178	0.033438900019973516
0	16.780594800016843	stim	482		2	ambiguous_practice	ambiguous_practice	0.0	preferred_right	3600.0	0.0		23.00390429998515	0.03361169999698177
0	16.814206500013825	stim	483		2	ambiguous_practice	ambiguous_practice	0.0	preferred_right	3600.0	0.0		23.037515999982134	0.03268609999213368
0	16.84689260000596	stim	484		2	ambiguous_practice	ambiguous_practice	0.0	preferred_right	3600.0	0.0		23.070202099974267	0.03386460000183433
0	16.880757200007793	stim	485		2	ambiguous_practice	ambiguous_practice	0.0	preferred_right	3600.0	0.0		23.1040666999761	0.03334850003011525
0	16.914105700037908	stim	486		2	ambiguous_practice	ambiguous_practice	0.0	preferred_right	3600.0	0.0		23.137415200006217	0.03329309995751828
0	16.947398799995426	stim	487		2	ambiguous_practice	ambiguous_practice	0.0	preferred_right	3600.0	0.0		23.170708299963735	0.03337660001125187
0	16.980775400006678	stim	488		2	ambiguous_practice	ambiguous_practice	0.0	preferred_right	3600.0	0.0		23.204084899974987	0.03334670001640916
0	17.014122100023087	stim	489		2	ambiguous_practice	ambiguous_practice	0.0	preferred_right	3600.0	0.0		23.237431599991396	0.03331819997401908
0	17.047440299997106	stim	490		2	ambiguous_practice	ambiguous_practice	0.0	preferred_right	3600.0	0.0		23.270749799965415	0.03332240000599995
0	17.080762700003106	stim	491		2	ambiguous_practice	ambiguous_practice	0.0	preferred_right	3600.0	0.0		23.304072199971415	0.033699800027534366
0	17.11446250003064	stim	492		2	ambiguous_practice	ambiguous_practice	0.0	preferred_right	3600.0	0.0		23.33777199999895	0.03361569996923208
0	17.148078199999873	stim	493		2	ambiguous_practice	ambiguous_practice	0.0	preferred_right	3600.0	0.0		23.37138769996818	0.0336092000361532
0	17.181687400036026	stim	494		2	ambiguous_practice	ambiguous_practice	0.0	preferred_right	3600.0	0.0		23.404996900004335	0.03350889997091144
0	17.215196300006937	stim	495		2	ambiguous_practice	ambiguous_practice	0.0	preferred_right	3600.0	0.0		23.438505799975246	0.03340890002436936
0	17.248605200031307	stim	496		0	ambiguous_practice	ambiguous_practice	0.0	preferred_right	3600.0	0.0		23.471914699999616	4.8961839999537915
0	22.144789199985098	ambiguous_practice	496	escape	2	ambiguous_practice	ambiguous_practice	0.0	preferred_right	3600.0	0.0	0.1318326000473462	28.368098699953407	-4.8463506999542005
0	17.298438500030898	stim	497		2	ambiguous_practice	ambiguous_practice	0.0	preferred_right	3600.0	0.0		23.521747999999207	0.032918799959588796
0	17.331357299990486	stim	498		2	ambiguous_practice	ambiguous_practice	0.0	preferred_right	3600.0	0.0		23.554666799958795	0.03397580003365874
0	17.365333100024145	stim	499		2	ambiguous_practice	ambiguous_practice	0.0	preferred_right	3600.0	0.0		23.588642599992454	0.033360400004312396
0	17.398693500028457	stim	500		2	ambiguous_practice	ambiguous_practice	0.0	preferred_right	3600.0	0.0		23.622002999996766	0.033643700007814914
0	17.432337200036272	stim	501		2	ambiguous_practice	ambiguous_practice	0.0	preferred_right	3600.0	0.0		23.65564670000458	0.03355729999020696
0	17.46589450002648	stim	502		2	ambiguous_practice	ambiguous_practice	0.0	preferred_right	3600.0	0.0		23.68920399999479	0.03318309999303892
0	17.49907760001952	stim	503		2	ambiguous_practice	ambiguous_practice	0.0	preferred_right	3600.0	0.0		23.722387099987827	0.033716199977789074
0	17.532793799997307	stim	504		2	ambiguous_practice	ambiguous_practice	0.0	preferred_right	3600.0	0.0		23.756103299965616	0.032778099994175136
0	17.565571899991482	stim	505		2	ambiguous_practice	ambiguous_practice	0.0	preferred_right	3600.0	0.0		23.78888139995979	0.03333460004068911
0	17.59890650003217	stim	506		2	ambiguous_practice	ambiguous_practice	0.0	preferred_right	3600.0	0.0		23.82221600000048	0.03398229996673763
0	17.63288879999891	stim	507		2	ambiguous_practice	ambiguous_practice	0.0	preferred_right	3600.0	0.0		23.856198299967218	0.033589500002563
0	17.666478300001472	stim	508		2	ambiguous_practice	ambiguous_practice	0.0	preferred_right	3600.0	0.0		23.88978779996978	0.03299540001899004
0	17.699473700020462	stim	509		2	ambiguous_practice	ambiguous_practice	0.0	preferred_right	3600.0	0.0		23.92278319998877	0.03379119996679947
0	17.73326489998726	stim	510		2	ambiguous_practice	ambiguous_practice	0.0	preferred_right	3600.0	0.0		23.95657439995557	0.0331067000515759
0	17.766371600038838	stim	511		2	ambiguous_practice	ambiguous_practice	0.0	preferred_right	3600.0	0.0		23.989681100007147	0.03350520000094548
0	17.799876800039783	stim	512		2	ambiguous_practice	ambiguous_practice	0.0	preferred_right	3600.0	0.0		24.023186300008092	0.03314319998025894
0	17.833020000020042	stim	513		2	ambiguous_practice	ambiguous_practice	0.0	preferred_right	3600.0	0.0		24.05632949998835	0.0336519000120461
0	17.866671900032088	stim	514		2	ambiguous_practice	ambiguous_practice	0.0	preferred_right	3600.0	0.0		24.089981400000397	0.033671699988190085
0	17.90034360002028	stim	515		2	ambiguous_practice	ambiguous_practice	0.0	preferred_right	3600.0	0.0		24.123653099988587	0.03328269999474287
0	17.93362630001502	stim	516		2	ambiguous_practice	ambiguous_practice	0.0	preferred_right	3600.0	0.0		24.15693579998333	0.033456899982411414
0	17.967083199997433	stim	517		2	ambiguous_practice	ambiguous_practice	0.0	preferred_right	3600.0	0.0		24.19039269996574	0.033221299992874265
0	18.000304499990307	stim	518		2	ambiguous_practice	ambiguous_practice	0.0	preferred_right	3600.0	0.0		24.223613999958616	0.03355000005103648
0	18.033854500041343	stim	519		2	ambiguous_practice	ambiguous_practice	0.0	preferred_right	3600.0	0.0		24.257164000009652	0.03302529995562509
0	18.06687979999697	stim	520		2	ambiguous_practice	ambiguous_practice	0.0	preferred_right	3600.0	0.0		24.290189299965277	0.03367269999580458
0	18.100552499992773	stim	521		2	ambiguous_practice	ambiguous_practice	0.0	preferred_right	3600.0	0.0		24.323861999961082	0.03372550004860386
0	18.134278000041377	stim	522		2	ambiguous_practice	ambiguous_practice	0.0	preferred_right	3600.0	0.0		24.357587500009686	0.03320809995057061
0	18.167486099991947	stim	523		2	ambiguous_practice	ambiguous_practice	0.0	preferred_right	3600.0	0.0		24.390795599960256	0.03344590001506731
0	18.200932000007015	stim	524		2	ambiguous_practice	ambiguous_practice	0.0	preferred_right	3600.0	0.0		24.424241499975324	0.03301790001569316
0	18.233949900022708	stim	525		2	ambiguous_practice	ambiguous_practice	0.0	preferred_right	3600.0	0.0		24.457259399991017	0.03356569999596104
0	18.26751560001867	stim	526		2	ambiguous_practice	ambiguous_practice	0.0	preferred_right	3600.0	0.0		24.490825099986978	0.03280410001752898
0	18.300319700036198	stim	527		2	ambiguous_practice	ambiguous_practice	0.0	preferred_right	3600.0	0.0		24.523629200004507	0.03341319999890402
0	18.333732900035102	stim	528		2	ambiguous_practice	ambiguous_practice	0.0	preferred_right	3600.0	0.0		24.55704240000341	0.03397649998078123
0	18.367709400015883	stim	529		2	ambiguous_practice	ambiguous_practice	0.0	preferred_right	3600.0	0.0		24.591018899984192	0.03335350000998005
0	18.401062900025863	stim	530		2	ambiguous_practice	ambiguous_practice	0.0	preferred_right	3600.0	0.0		24.624372399994172	0.03321339999092743
0	18.43427630001679	stim	531		2	ambiguous_practice	ambiguous_practice	0.0	preferred_right	3600.0	0.0		24.6575857999851	0.0334158000187017
0	18.467692100035492	stim	532		2	ambiguous_practice	ambiguous_practice	0.0	preferred_right	3600.0	0.0		24.6910016000038	0.03326169995125383
0	18.500953799986746	stim	533		2	ambiguous_practice	ambiguous_practice	0.0	preferred_right	3600.0	0.0		24.724263299955055	0.032954399997834116
0	18.53390819998458	stim	534		2	ambiguous_practice	ambiguous_practice	0.0	preferred_right	3600.0	0.0		24.75721769995289	0.03343050001421943
0	18.5673386999988	stim	535		2	ambiguous_practice	ambiguous_practice	0.0	preferred_right	3600.0	0.0		24.79064819996711	0.03331239998806268
0	18.600651099986862	stim	536		2	ambiguous_practice	ambiguous_practice	0.0	preferred_right	3600.0	0.0		24.82396059995517	0.033343100047204643
0	18.633994200034067	stim	537		2	ambiguous_practice	ambiguous_practice	0.0	preferred_right	3600.0	0.0		24.857303700002376	0.03319069999270141
0	18.66718490002677	stim	538		2	ambiguous_practice	ambiguous_practice	0.0	preferred_right	3600.0	0.0		24.890494399995077	0.03395790001377463
0	18.701142800040543	stim	539		2	ambiguous_practice	ambiguous_practice	0.0	preferred_right	3600.0	0.0		24.924452300008852	0.0333775999606587
0	18.734520400001202	stim	540		2	ambiguous_practice	ambiguous_practice	0.0	preferred_right	3600.0	0.0		24.95782989996951	0.03331880003679544
0	18.767839200037997	stim	541		2	ambiguous_practice	ambiguous_practice	0.0	preferred_right	3600.0	0.0		24.991148700006306	0.033280299976468086
0	18.801119500014465	stim	542		2	ambiguous_practice	ambiguous_practice	0.0	preferred_right	3600.0	0.0		25.024428999982774	0.03281040000729263
0	18.833929900021758	stim	543		2	ambiguous_practice	ambiguous_practice	0.0	preferred_right	3600.0	0.0		25.057239399990067	0.03422380000120029
0	18.868153700022958	stim	544		2	ambiguous_practice	ambiguous_practice	0.0	preferred_right	3600.0	0.0		25.091463199991267	0.03324869996868074
0	18.90140239999164	stim	545		2	ambiguous_practice	ambiguous_practice	0.0	preferred_right	3600.0	0.0		25.124711899959948	0.033246300008613616
0	18.934648700000253	stim	546		2	ambiguous_practice	ambiguous_practice	0.0	preferred_right	3600.0	0.0		25.15795819996856	0.033627099997829646
0	18.968275799998082	stim	547		2	ambiguous_practice	ambiguous_practice	0.0	preferred_right	3600.0	0.0		25.19158529996639	0.03384009998990223
0	19.002115899987984	stim	548		2	ambiguous_practice	ambiguous_practice	0.0	preferred_right	3600.0	0.0		25.225425399956293	0.03325730003416538
0	19.03537320002215	stim	549		2	ambiguous_practice	ambiguous_practice	0.0	preferred_right	3600.0	0.0		25.25868269999046	0.03293159999884665
0	19.068304800020996	stim	550		2	ambiguous_practice	ambiguous_practice	0.0	preferred_right	3600.0	0.0		25.291614299989305	0.03398489998653531
0	19.102289700007532	stim	551		2	ambiguous_practice	ambiguous_practice	0.0	preferred_right	3600.0	0.0		25.32559919997584	0.033356300031300634
0	19.135646000038832	stim	552		2	ambiguous_practice	ambiguous_practice	0.0	preferred_right	3600.0	0.0		25.35895550000714	0.03347269998630509
0	19.169118700025138	stim	553		2	ambiguous_practice	ambiguous_practice	0.0	preferred_right	3600.0	0.0		25.392428199993446	0.03289749997202307
0	19.20201619999716	stim	554		2	ambiguous_practice	ambiguous_practice	0.0	preferred_right	3600.0	0.0		25.42532569996547	0.03384320001350716
0	19.235859400010668	stim	555		2	ambiguous_practice	ambiguous_practice	0.0	preferred_right	3600.0	0.0		25.459168899978977	0.032955900009255856
0	19.268815300019924	stim	556		2	ambiguous_practice	ambiguous_practice	0.0	preferred_right	3600.0	0.0		25.492124799988233	0.03314820001833141
0	19.301963500038255	stim	557		2	ambiguous_practice	ambiguous_practice	0.0	preferred_right	3600.0	0.0		25.525273000006564	0.03381419996730983
0	19.335777700005565	stim	558		2	ambiguous_practice	ambiguous_practice	0.0	preferred_right	3600.0	0.0		25.559087199973874	0.03339350002352148
0	19.369171200029086	stim	559		2	ambiguous_practice	ambiguous_practice	0.0	preferred_right	3600.0	0.0		25.592480699997395	0.033477499964646995
0	19.402648699993733	stim	560		2	ambiguous_practice	ambiguous_practice	0.0	preferred_right	3600.0	0.0		25.625958199962042	0.03323880000971258
0	19.435887500003446	stim	561		2	ambiguous_practice	ambiguous_practice	0.0	preferred_right	3600.0	0.0		25.659196999971755	0.03348749998258427
0	19.46937499998603	stim	562		2	ambiguous_practice	ambiguous_practice	0.0	preferred_right	3600.0	0.0		25.69268449995434	0.033553000015672296
0	19.502928000001702	stim	563		2	ambiguous_practice	ambiguous_practice	0.0	preferred_right	3600.0	0.0		25.72623749997001	0.03322620003018528
0	19.536154200031888	stim	564		2	ambiguous_practice	ambiguous_practice	0.0	preferred_right	3600.0	0.0		25.759463700000197	0.033390399999916553
0	19.569544600031804	stim	565		2	ambiguous_practice	ambiguous_practice	0.0	preferred_right	3600.0	0.0		25.792854100000113	0.03346309997141361
0	19.603007700003218	stim	566		2	ambiguous_practice	ambiguous_practice	0.0	preferred_right	3600.0	0.0		25.826317199971527	0.03329910000320524
0	19.636306800006423	stim	567		2	ambiguous_practice	ambiguous_practice	0.0	preferred_right	3600.0	0.0		25.859616299974732	0.033668600022792816
0	19.669975400029216	stim	568		2	ambiguous_practice	ambiguous_practice	0.0	preferred_right	3600.0	0.0		25.893284899997525	0.03326329996343702
0	19.703238699992653	stim	569		2	ambiguous_practice	ambiguous_practice	0.0	preferred_right	3600.0	0.0		25.926548199960962	0.03281180001795292
0	19.736050500010606	stim	570		0	ambiguous_practice	ambiguous_practice	0.0	preferred_right	3600.0	0.0		25.959359999978915	4.8916598000214435
0	24.62771030003205	ambiguous_practice	570	lctrl	2	ambiguous_practice	ambiguous_practice	0.0	preferred_right	3600.0	0.0	0.13748809997923672	30.85101980000036	-4.84118650003802
0	19.78652379999403	stim	571		2	ambiguous_practice	ambiguous_practice	0.0	preferred_right	3600.0	0.0		26.009833299962338	0.03394260001368821
0	19.820466400007717	stim	572		2	ambiguous_practice	ambiguous_practice	0.0	preferred_right	3600.0	0.0		26.043775899976026	0.0332602999988012
0	19.85372670000652	stim	573		2	ambiguous_practice	ambiguous_practice	0.0	preferred_right	3600.0	0.0		26.077036199974827	0.03327700000954792
0	19.887003700016066	stim	574		0	ambiguous_practice	ambiguous_practice	0.0	preferred_right	3600.0	0.0		26.110313199984375	4.933944699994754
0	24.82094840001082	ambiguous_practice	574	d	2	ambiguous_practice	ambiguous_practice	0.0	preferred_right	3600.0	0.0	0.09497989999363199	31.04425789997913	-4.883477900002617
0	19.937470500008203	stim	575		2	ambiguous_practice	ambiguous_practice	0.0	preferred_right	3600.0	0.0		26.160779999976512	0.03356309997616336
0	19.971033599984366	stim	576		2	ambiguous_practice	ambiguous_practice	0.0	preferred_right	3600.0	0.0		26.194343099952675	0.033268700004555285
0	20.00430229998892	stim	577		2	ambiguous_practice	ambiguous_practice	0.0	preferred_right	3600.0	0.0		26.22761179995723	0.034013900032732636
0	20.038316200021654	stim	578		0	ambiguous_practice	ambiguous_practice	0.0	preferred_right	3600.0	0.0		26.261625699989963	4.945055199961644
0	24.983371399983298	ambiguous_practice	578	lctrl	2	ambiguous_practice	ambiguous_practice	0.0	preferred_right	3600.0	0.0	0.08478160004597157	31.206680899951607	-4.8950385999633
0	20.088332800019998	stim	579		2	ambiguous_practice	ambiguous_practice	0.0	preferred_right	3600.0	0.0		26.311642299988307	0.033372199977748096
0	20.121704999997746	stim	580		2	ambiguous_practice	ambiguous_practice	0.0	preferred_right	3600.0	0.0		26.345014499966055	0.03335929999593645
0	20.155064299993683	stim	581		0	ambiguous_practice	ambiguous_practice	0.0	preferred_right	3600.0	0.0		26.37837379996199	4.907379899988882
0	25.062444199982565	ambiguous_practice	581	d	2	ambiguous_practice	ambiguous_practice	0.0	preferred_right	3600.0	0.0	0.10027620004257187	31.285753699950874	-4.8574209999642335
0	20.20502320001833	stim	582		2	ambiguous_practice	ambiguous_practice	0.0	preferred_right	3600.0	0.0		26.42833269998664	0.03278780000982806
0	20.23781100002816	stim	583		2	ambiguous_practice	ambiguous_practice	0.0	preferred_right	3600.0	0.0		26.46112049999647	0.03388379997340962
0	20.27169480000157	stim	584		0	ambiguous_practice	ambiguous_practice	0.0	preferred_right	3600.0	0.0		26.495004299969878	4.9129103000159375
0	25.184605100017507	ambiguous_practice	584	lctrl	2	ambiguous_practice	ambiguous_practice	0.0	preferred_right	3600.0	0.0	0.11097889998927712	31.407914599985816	-4.862900400010403
0	20.321704700007103	stim	585		0	ambiguous_practice	ambiguous_practice	0.0	preferred_right	3600.0	0.0		26.545014199975412	4.922398500028066
0	25.24410320003517	ambiguous_practice	585	d	2	ambiguous_practice	ambiguous_practice	0.0	preferred_right	3600.0	0.0	0.10431489994516596	31.46741270000348	-4.872378700005356
0	20.371724500029813	stim	586		2	ambiguous_practice	ambiguous_practice	0.0	preferred_right	3600.0	0.0		26.595033999998122	0.03329039999516681
0	20.40501490002498	stim	587		2	ambiguous_practice	ambiguous_practice	0.0	preferred_right	3600.0	0.0		26.62832439999329	0.033416999969631433
0	20.43843189999461	stim	588		2	ambiguous_practice	ambiguous_practice	0.0	preferred_right	3600.0	0.0		26.66174139996292	0.033534000045619905
0	20.47196590004023	stim	589		2	ambiguous_practice	ambiguous_practice	0.0	preferred_right	3600.0	0.0		26.69527540000854	0.03272279998054728
0	20.50468870002078	stim	590		2	ambiguous_practice	ambiguous_practice	0.0	preferred_right	3600.0	0.0		26.727998199989088	0.03384729998651892
0	20.538536000007298	stim	591		0	ambiguous_practice	ambiguous_practice	0.0	preferred_right	3600.0	0.0		26.761845499975607	4.964164200006053
0	25.50270020001335	ambiguous_practice	591	a	2	ambiguous_practice	ambiguous_practice	0.0	preferred_right	3600.0	0.0	0.0687105999677442	31.72600969998166	-4.930111400026362
0	20.57258879998699	stim	592		0	ambiguous_practice	ambiguous_practice	0.0	preferred_right	3600.0	0.0		26.795898299955297	4.921008900040761
0	25.49359770002775	ambiguous_practice	592	f	2	ambiguous_practice	ambiguous_practice	0.0	preferred_right	3600.0	0.0	0.09354410000378266	31.716907199996058	-4.871640000026673
0	20.621957700001076	stim	593		2	ambiguous_practice	ambiguous_practice	0.0	preferred_right	3600.0	0.0		26.845267199969385	0.03333890001522377
0	20.6552966000163	stim	594		2	ambiguous_practice	ambiguous_practice	0.0	preferred_right	3600.0	0.0		26.87860609998461	0.033704200002830476
0	20.68900080001913	stim	595		2	ambiguous_practice	ambiguous_practice	0.0	preferred_right	3600.0	0.0		26.91231029998744	0.03336669999407604
0	20.722367500013206	stim	596		2	ambiguous_practice	ambiguous_practice	0.0	preferred_right	3600.0	0.0		26.945676999981515	0.032910000008996576
0	20.755277500022203	stim	597		2	ambiguous_practice	ambiguous_practice	0.0	preferred_right	3600.0	0.0		26.97858699999051	0.03376289998413995
0	20.789040400006343	stim	598		0	ambiguous_practice	ambiguous_practice	0.0	preferred_right	3600.0	0.0		27.01234989997465	4.942565799981821
0	25.731606199988164	ambiguous_practice	598	a	2	ambiguous_practice	ambiguous_practice	0.0	preferred_right	3600.0	0.0	0.09583930001826957	31.954915699956473	-4.909230299992487
0	20.822375899995677	stim	599		0	ambiguous_practice	ambiguous_practice	0.0	preferred_right	3600.0	0.0		27.045685399963986	4.9193157000117935
0	25.74169160000747	ambiguous_practice	599	c	2	ambiguous_practice	ambiguous_practice	0.0	preferred_right	3600.0	0.0	0.10562470002332702	31.96500109997578	-4.869318999990355
0	20.872372600017115	stim	600		2	ambiguous_practice	ambiguous_practice	0.0	preferred_right	3600.0	0.0		27.095682099985424	0.03335839998908341
0	20.9057310000062	stim	601		2	ambiguous_practice	ambiguous_practice	0.0	preferred_right	3600.0	0.0		27.129040499974508	0.03322779998416081
0	20.93895879999036	stim	602		2	ambiguous_practice	ambiguous_practice	0.0	preferred_right	3600.0	0.0		27.16226829995867	0.0331302999984473
0	20.972089099988807	stim	603		2	ambiguous_practice	ambiguous_practice	0.0	preferred_right	3600.0	0.0		27.195398599957116	0.03392020001774654
0	21.006009300006554	stim	604		2	ambiguous_practice	ambiguous_practice	0.0	preferred_right	3600.0	0.0		27.229318799974862	0.033372399979270995
0	21.039381699985825	stim	605		2	ambiguous_practice	ambiguous_practice	0.0	preferred_right	3600.0	0.0		27.262691199954133	0.03325070004211739
0	21.072632400027942	stim	606		0	ambiguous_practice	ambiguous_practice	0.0	preferred_right	3600.0	0.0		27.29594189999625	4.92274459998589
0	25.995377000013832	ambiguous_practice	606	lshift	2	ambiguous_practice	ambiguous_practice	0.0	preferred_right	3600.0	0.0	0.10055460000876337	32.21868649998214	-4.872608900011983
0	21.12276810000185	stim	607		0	ambiguous_practice	ambiguous_practice	0.0	preferred_right	3600.0	0.0		27.346077599970158	4.9191158000030555
0	26.041883900004905	ambiguous_practice	607	c	2	ambiguous_practice	ambiguous_practice	0.0	preferred_right	3600.0	0.0	0.08971380000002682	32.265193399973214	-4.869159800000489
0	21.172724100004416	stim	608		2	ambiguous_practice	ambiguous_practice	0.0	preferred_right	3600.0	0.0		27.396033599972725	0.03307980002136901
0	21.205803900025785	stim	609		2	ambiguous_practice	ambiguous_practice	0.0	preferred_right	3600.0	0.0		27.429113399994094	0.0335703999735415
0	21.239374299999326	stim	610		2	ambiguous_practice	ambiguous_practice	0.0	preferred_right	3600.0	0.0		27.462683799967635	0.033593100029975176
0	21.2729674000293	stim	611		0	ambiguous_practice	ambiguous_practice	0.0	preferred_right	3600.0	0.0		27.49627689999761	4.91934379999293
0	26.192311200022232	ambiguous_practice	611	lctrl	2	ambiguous_practice	ambiguous_practice	0.0	preferred_right	3600.0	0.0	0.11091519996989518	32.41562069999054	-4.8693537000217475
0	21.322957500000484	stim	612		2	ambiguous_practice	ambiguous_practice	0.0	preferred_right	3600.0	0.0		27.546266999968793	0.03354340000078082
0	21.356500900001265	stim	613		2	ambiguous_practice	ambiguous_practice	0.0	preferred_right	3600.0	0.0		27.579810399969574	0.03331430000253022
0	21.389815200003795	stim	614		0	ambiguous_practice	ambiguous_practice	0.0	preferred_right	3600.0	0.0		27.613124699972104	4.918852599977981
0	26.308667799981777	ambiguous_practice	614	c	2	ambiguous_practice	ambiguous_practice	0.0	preferred_right	3600.0	0.0	0.10008980002021417	32.531977299950086	-4.869001799961552
0	21.439666000020225	stim	615		2	ambiguous_practice	ambiguous_practice	0.0	preferred_right	3600.0	0.0		27.662975499988534	0.03347779996693134
0	21.473143799987156	stim	616		0	ambiguous_practice	ambiguous_practice	0.0	preferred_right	3600.0	0.0		27.696453299955465	4.9145336000365205
0	26.387677400023676	ambiguous_practice	616	lctrl	2	ambiguous_practice	ambiguous_practice	0.0	preferred_right	3600.0	0.0	0.11150439997436479	32.610986899991985	-4.864322300010826
0	21.52335510001285	stim	617		2	ambiguous_practice	ambiguous_practice	0.0	preferred_right	3600.0	0.0		27.74666459998116	0.03298650000942871
0	21.55634160002228	stim	618		2	ambiguous_practice	ambiguous_practice	0.0	preferred_right	3600.0	0.0		27.779651099990588	0.03340999997453764
0	21.589751599996816	stim	619		2	ambiguous_practice	ambiguous_practice	0.0	preferred_right	3600.0	0.0		27.813061099965125	0.03334900003392249
0	21.62310060003074	stim	620		0	ambiguous_practice	ambiguous_practice	0.0	preferred_right	3600.0	0.0		27.846410099999048	4.946564999991097
0	26.569665600021835	ambiguous_practice	620	c	0	ambiguous_practice	ambiguous_practice	0.0	preferred_right	3600.0	0.0	0.07927879999624565	32.792975099990144	0.010524899989832193
0	26.580190500011668	ambiguous_practice	620	lctrl	2	ambiguous_practice	ambiguous_practice	0.0	preferred_right	3600.0	0.0	0.08983209996949881	32.80349999997998	-4.906934000027832
0	21.673256499983836	stim	621		2	ambiguous_practice	ambiguous_practice	0.0	preferred_right	3600.0	0.0		27.896565999952145	0.03310380002949387
0	21.70636030001333	stim	622		2	ambiguous_practice	ambiguous_practice	0.0	preferred_right	3600.0	0.0		27.92966979998164	0.03377330000512302
0	21.740133600018453	stim	623		2	ambiguous_practice	ambiguous_practice	0.0	preferred_right	3600.0	0.0		27.963443099986762	0.03334949997952208
0	21.773483099997975	stim	624		2	ambiguous_practice	ambiguous_practice	0.0	preferred_right	3600.0	0.0		27.996792599966284	0.03333220002241433
0	21.80681530002039	stim	625		2	ambiguous_practice	ambiguous_practice	0.0	preferred_right	3600.0	0.0		28.030124799988698	0.03333479998400435
0	21.840150100004394	stim	626		2	ambiguous_practice	ambiguous_practice	0.0	preferred_right	3600.0	0.0		28.063459599972703	0.03334640001412481
0	21.87349650001852	stim	627		2	ambiguous_practice	ambiguous_practice	0.0	preferred_right	3600.0	0.0		28.096805999986827	0.0334162000217475
0	21.906912700040266	stim	628		2	ambiguous_practice	ambiguous_practice	0.0	preferred_right	3600.0	0.0		28.130222200008575	0.03317189996596426
0	21.94008460000623	stim	629		2	ambiguous_practice	ambiguous_practice	0.0	preferred_right	3600.0	0.0		28.16339409997454	0.0336890000035055
0	21.973773600009736	stim	630		2	ambiguous_practice	ambiguous_practice	0.0	preferred_right	3600.0	0.0		28.197083099978045	0.03340090002166107
0	22.007174500031397	stim	631		2	ambiguous_practice	ambiguous_practice	0.0	preferred_right	3600.0	0.0		28.230483999999706	0.03340119996573776
0	22.040575699997135	stim	632		2	ambiguous_practice	ambiguous_practice	0.0	preferred_right	3600.0	0.0		28.263885199965443	0.03328430000692606
