trial_nr	onset	event_type	phase	response	nr_frames	block_type	trial_type	block_ID	response_hand	phase_length	last_frame	key_duration	onset_abs	duration
0	0.014994699973613024	stim	0		0	ambiguous_practice	ambiguous_practice	0.0	preferred_right	3600.0	0.0		5.596197399951052	2.5105305000324734
0	2.5255252000060864	ambiguous_practice	0	space	1	ambiguous_practice	ambiguous_practice	0.0	preferred_right	3600.0	0.0	0.0894943000166677	8.106727899983525	-2.4440246000303887
0	0.0815005999756977	stim	1		0	ambiguous_practice	ambiguous_practice	0.0	preferred_right	3600.0	0.0		5.662703299953137	4.368635200022254
0	4.450135799997952	ambiguous_practice	1	space	2	ambiguous_practice	ambiguous_practice	0.0	preferred_right	3600.0	0.0	0.05796609999379143	10.03133849997539	-4.318950099986978
0	0.13118570001097396	stim	2		2	ambiguous_practice	ambiguous_practice	0.0	preferred_right	3600.0	0.0		5.712388399988413	0.033944399969186634
0	0.1651300999801606	stim	3		2	ambiguous_practice	ambiguous_practice	0.0	preferred_right	3600.0	0.0		5.7463327999575995	0.03347070002928376
0	0.19860080000944436	stim	4		2	ambiguous_practice	ambiguous_practice	0.0	preferred_right	3600.0	0.0		5.779803499986883	0.03346840001177043
0	0.23206920002121478	stim	5		2	ambiguous_practice	ambiguous_practice	0.0	preferred_right	3600.0	0.0		5.813271899998654	0.0330363999819383
0	0.2651056000031531	stim	6		2	ambiguous_practice	ambiguous_practice	0.0	preferred_right	3600.0	0.0		5.846308299980592	0.03356030001305044
0	0.2986659000162035	stim	7		2	ambiguous_practice	ambiguous_practice	0.0	preferred_right	3600.0	0.0		5.879868599993642	0.03364739997778088
0	0.3323132999939844	stim	8		2	ambiguous_practice	ambiguous_practice	0.0	preferred_right	3600.0	0.0		5.913515999971423	0.03284010000061244
0	0.36515339999459684	stim	9		2	ambiguous_practice	ambiguous_practice	0.0	preferred_right	3600.0	0.0		5.946356099972036	0.03379110002424568
0	0.3989445000188425	stim	10		2	ambiguous_practice	ambiguous_practice	0.0	preferred_right	3600.0	0.0		5.980147199996281	0.03345059999264777
0	0.4323951000114903	stim	11		2	ambiguous_practice	ambiguous_practice	0.0	preferred_right	3600.0	0.0		6.013597799988929	0.03381029999582097
0	0.46620540000731125	stim	12		2	ambiguous_practice	ambiguous_practice	0.0	preferred_right	3600.0	0.0		6.04740809998475	0.03349469997920096
0	0.4997000999865122	stim	13		2	ambiguous_practice	ambiguous_practice	0.0	preferred_right	3600.0	0.0		6.080902799963951	0.03336870000930503
0	0.5330687999958172	stim	14		2	ambiguous_practice	ambiguous_practice	0.0	preferred_right	3600.0	0.0		6.114271499973256	0.03340389998629689
0	0.5664726999821141	stim	15		2	ambiguous_practice	ambiguous_practice	0.0	preferred_right	3600.0	0.0		6.147675399959553	0.0333595999982208
0	0.5998322999803349	stim	16		2	ambiguous_practice	ambiguous_practice	0.0	preferred_right	3600.0	0.0		6.181034999957774	0.033280500036198646
0	0.6331128000165336	stim	17		2	ambiguous_practice	ambiguous_practice	0.0	preferred_right	3600.0	0.0		6.2143154999939725	0.03347679995931685
0	0.6665895999758504	stim	18		2	ambiguous_practice	ambiguous_practice	0.0	preferred_right	3600.0	0.0		6.247792299953289	0.03353930002776906
0	0.7001289000036195	stim	19		2	ambiguous_practice	ambiguous_practice	0.0	preferred_right	3600.0	0.0		6.281331599981058	0.03348159999586642
0	0.7336104999994859	stim	20		2	ambiguous_practice	ambiguous_practice	0.0	preferred_right	3600.0	0.0		6.314813199976925	0.03357329999562353
0	0.7671837999951094	stim	21		2	ambiguous_practice	ambiguous_practice	0.0	preferred_right	3600.0	0.0		6.348386499972548	0.033225800027139485
0	0.8004096000222489	stim	22		2	ambiguous_practice	ambiguous_practice	0.0	preferred_right	3600.0	0.0		6.381612299999688	0.0329863999504596
0	0.8333959999727085	stim	23		2	ambiguous_practice	ambiguous_practice	0.0	preferred_right	3600.0	0.0		6.414598699950147	0.033208100008778274
0	0.8666040999814868	stim	24		2	ambiguous_practice	ambiguous_practice	0.0	preferred_right	3600.0	0.0		6.447806799958926	0.03389930003322661
0	0.9005034000147134	stim	25		2	ambiguous_practice	ambiguous_practice	0.0	preferred_right	3600.0	0.0		6.481706099992152	0.03351109998766333
0	0.9340145000023767	stim	26		2	ambiguous_practice	ambiguous_practice	0.0	preferred_right	3600.0	0.0		6.515217199979816	0.033281899988651276
0	0.967296399991028	stim	27		2	ambiguous_practice	ambiguous_practice	0.0	preferred_right	3600.0	0.0		6.548499099968467	0.03309009998338297
0	1.000386499974411	stim	28		2	ambiguous_practice	ambiguous_practice	0.0	preferred_right	3600.0	0.0		6.58158919995185	0.033301400020718575
0	1.0336878999951296	stim	29		2	ambiguous_practice	ambiguous_practice	0.0	preferred_right	3600.0	0.0		6.6148905999725685	0.03386050002882257
0	1.0675484000239521	stim	30		2	ambiguous_practice	ambiguous_practice	0.0	preferred_right	3600.0	0.0		6.648751100001391	0.03268699999898672
0	1.1002354000229388	stim	31		2	ambiguous_practice	ambiguous_practice	0.0	preferred_right	3600.0	0.0		6.681438100000378	0.03360739996423945
0	1.1338427999871783	stim	32		2	ambiguous_practice	ambiguous_practice	0.0	preferred_right	3600.0	0.0		6.715045499964617	0.03396259999135509
0	1.1678053999785334	stim	33		2	ambiguous_practice	ambiguous_practice	0.0	preferred_right	3600.0	0.0		6.749008099955972	0.033226000028662384
0	1.2010314000071958	stim	34		2	ambiguous_practice	ambiguous_practice	0.0	preferred_right	3600.0	0.0		6.782234099984635	0.03345759998774156
0	1.2344889999949373	stim	35		2	ambiguous_practice	ambiguous_practice	0.0	preferred_right	3600.0	0.0		6.815691699972376	0.033959300024434924
0	1.2684483000193723	stim	36		2	ambiguous_practice	ambiguous_practice	0.0	preferred_right	3600.0	0.0		6.849650999996811	0.033364899980369955
0	1.3018131999997422	stim	37		2	ambiguous_practice	ambiguous_practice	0.0	preferred_right	3600.0	0.0		6.883015899977181	0.03317640000022948
0	1.3349895999999717	stim	38		2	ambiguous_practice	ambiguous_practice	0.0	preferred_right	3600.0	0.0		6.916192299977411	0.03286209999350831
0	1.36785169999348	stim	39		2	ambiguous_practice	ambiguous_practice	0.0	preferred_right	3600.0	0.0		6.949054399970919	0.034317700017709285
0	1.4021694000111893	stim	40		2	ambiguous_practice	ambiguous_practice	0.0	preferred_right	3600.0	0.0		6.983372099988628	0.04933730000630021
0	1.4515067000174895	stim	41		2	ambiguous_practice	ambiguous_practice	0.0	preferred_right	3600.0	0.0		7.032709399994928	0.03368319995934144
0	1.485189899976831	stim	42		2	ambiguous_practice	ambiguous_practice	0.0	preferred_right	3600.0	0.0		7.06639259995427	0.03358320001279935
0	1.5187730999896303	stim	43		2	ambiguous_practice	ambiguous_practice	0.0	preferred_right	3600.0	0.0		7.099975799967069	0.0333661999902688
0	1.552139299979899	stim	44		2	ambiguous_practice	ambiguous_practice	0.0	preferred_right	3600.0	0.0		7.133341999957338	0.033244799997191876
0	1.585384099977091	stim	45		2	ambiguous_practice	ambiguous_practice	0.0	preferred_right	3600.0	0.0		7.16658679995453	0.03333590005058795
0	1.618720000027679	stim	46		2	ambiguous_practice	ambiguous_practice	0.0	preferred_right	3600.0	0.0		7.199922700005118	0.034018299949821085
0	1.6527382999775	stim	47		2	ambiguous_practice	ambiguous_practice	0.0	preferred_right	3600.0	0.0		7.233940999954939	0.03320820000953972
0	1.6859464999870397	stim	48		2	ambiguous_practice	ambiguous_practice	0.0	preferred_right	3600.0	0.0		7.267149199964479	0.033321900002192706
0	1.7192683999892324	stim	49		2	ambiguous_practice	ambiguous_practice	0.0	preferred_right	3600.0	0.0		7.300471099966671	0.03347060002852231
0	1.7527390000177547	stim	50		2	ambiguous_practice	ambiguous_practice	0.0	preferred_right	3600.0	0.0		7.333941699995194	0.03337339998688549
0	1.7861124000046402	stim	51		2	ambiguous_practice	ambiguous_practice	0.0	preferred_right	3600.0	0.0		7.367315099982079	0.03333150001708418
0	1.8194439000217244	stim	52		2	ambiguous_practice	ambiguous_practice	0.0	preferred_right	3600.0	0.0		7.400646599999163	0.03298029996221885
0	1.8524241999839433	stim	53		2	ambiguous_practice	ambiguous_practice	0.0	preferred_right	3600.0	0.0		7.433626899961382	0.033888200006913394
0	1.8863123999908566	stim	54		2	ambiguous_practice	ambiguous_practice	0.0	preferred_right	3600.0	0.0		7.4675150999682955	0.033439100021496415
0	1.919751500012353	stim	55		2	ambiguous_practice	ambiguous_practice	0.0	preferred_right	3600.0	0.0		7.500954199989792	0.03332819999195635
0	1.9530797000043094	stim	56		2	ambiguous_practice	ambiguous_practice	0.0	preferred_right	3600.0	0.0		7.534282399981748	0.03337889997055754
0	1.986458599974867	stim	57		2	ambiguous_practice	ambiguous_practice	0.0	preferred_right	3600.0	0.0		7.567661299952306	0.03359110001474619
0	2.020049699989613	stim	58		2	ambiguous_practice	ambiguous_practice	0.0	preferred_right	3600.0	0.0		7.601252399967052	0.03333459998248145
0	2.0533842999720946	stim	59		2	ambiguous_practice	ambiguous_practice	0.0	preferred_right	3600.0	0.0		7.6345869999495335	0.033016700006555766
0	2.0864009999786504	stim	60		2	ambiguous_practice	ambiguous_practice	0.0	preferred_right	3600.0	0.0		7.667603699956089	0.033987200004048645
0	2.120388199982699	stim	61		2	ambiguous_practice	ambiguous_practice	0.0	preferred_right	3600.0	0.0		7.701590899960138	0.034019800019450486
0	2.1544080000021495	stim	62		2	ambiguous_practice	ambiguous_practice	0.0	preferred_right	3600.0	0.0		7.735610699979588	0.03338350000558421
0	2.1877915000077337	stim	63		2	ambiguous_practice	ambiguous_practice	0.0	preferred_right	3600.0	0.0		7.768994199985173	0.03329499997198582
0	2.2210864999797195	stim	64		2	ambiguous_practice	ambiguous_practice	0.0	preferred_right	3600.0	0.0		7.802289199957158	0.033713000011630356
0	2.25479949999135	stim	65		2	ambiguous_practice	ambiguous_practice	0.0	preferred_right	3600.0	0.0		7.836002199968789	0.033285200013779104
0	2.288084700005129	stim	66		2	ambiguous_practice	ambiguous_practice	0.0	preferred_right	3600.0	0.0		7.869287399982568	0.03351999999722466
0	2.3216047000023536	stim	67		2	ambiguous_practice	ambiguous_practice	0.0	preferred_right	3600.0	0.0		7.9028073999797925	0.03327690000878647
0	2.35488160001114	stim	68		2	ambiguous_practice	ambiguous_practice	0.0	preferred_right	3600.0	0.0		7.936084299988579	0.034222699992824346
0	2.3891043000039645	stim	69		2	ambiguous_practice	ambiguous_practice	0.0	preferred_right	3600.0	0.0		7.970306999981403	0.032794700004160404
0	2.421899000008125	stim	70		2	ambiguous_practice	ambiguous_practice	0.0	preferred_right	3600.0	0.0		8.003101699985564	0.033458399993833154
0	2.455357400001958	stim	71		2	ambiguous_practice	ambiguous_practice	0.0	preferred_right	3600.0	0.0		8.036560099979397	0.03342910000355914
0	2.488786500005517	stim	72		2	ambiguous_practice	ambiguous_practice	0.0	preferred_right	3600.0	0.0		8.069989199982956	0.03334179997909814
0	2.5221282999846153	stim	73		2	ambiguous_practice	ambiguous_practice	0.0	preferred_right	3600.0	0.0		8.103330999962054	0.0334473000257276
0	2.555575600010343	stim	74		2	ambiguous_practice	ambiguous_practice	0.0	preferred_right	3600.0	0.0		8.136778299987782	0.03344450000440702
0	2.58902010001475	stim	75		2	ambiguous_practice	ambiguous_practice	0.0	preferred_right	3600.0	0.0		8.170222799992189	0.03340819996083155
0	2.6224282999755815	stim	76		2	ambiguous_practice	ambiguous_practice	0.0	preferred_right	3600.0	0.0		8.20363099995302	0.033283700002357364
0	2.655711999977939	stim	77		2	ambiguous_practice	ambiguous_practice	0.0	preferred_right	3600.0	0.0		8.236914699955378	0.03346649999730289
0	2.6891784999752417	stim	78		2	ambiguous_practice	ambiguous_practice	0.0	preferred_right	3600.0	0.0		8.27038119995268	0.03356619999976829
0	2.72274469997501	stim	79		2	ambiguous_practice	ambiguous_practice	0.0	preferred_right	3600.0	0.0		8.303947399952449	0.03331120003713295
0	2.756055900012143	stim	80		2	ambiguous_practice	ambiguous_practice	0.0	preferred_right	3600.0	0.0		8.337258599989582	0.03336239996133372
0	2.7894182999734767	stim	81		2	ambiguous_practice	ambiguous_practice	0.0	preferred_right	3600.0	0.0		8.370620999950916	0.03343800001312047
0	2.822856299986597	stim	82		2	ambiguous_practice	ambiguous_practice	0.0	preferred_right	3600.0	0.0		8.404058999964036	0.03331969998544082
0	2.856175999972038	stim	83		2	ambiguous_practice	ambiguous_practice	0.0	preferred_right	3600.0	0.0		8.437378699949477	0.03384120005648583
0	2.890017200028524	stim	84		2	ambiguous_practice	ambiguous_practice	0.0	preferred_right	3600.0	0.0		8.471219900005963	0.0332531999447383
0	2.923270399973262	stim	85		2	ambiguous_practice	ambiguous_practice	0.0	preferred_right	3600.0	0.0		8.504473099950701	0.033348900033161044
0	2.956619300006423	stim	86		2	ambiguous_practice	ambiguous_practice	0.0	preferred_right	3600.0	0.0		8.537821999983862	0.033397599996533245
0	2.9900169000029564	stim	87		2	ambiguous_practice	ambiguous_practice	0.0	preferred_right	3600.0	0.0		8.571219599980395	0.03387569996993989
0	3.0238925999728963	stim	88		2	ambiguous_practice	ambiguous_practice	0.0	preferred_right	3600.0	0.0		8.605095299950335	0.036085500032640994
0	3.0599781000055373	stim	89		2	ambiguous_practice	ambiguous_practice	0.0	preferred_right	3600.0	0.0		8.641180799982976	0.03284300002269447
0	3.0928211000282317	stim	90		2	ambiguous_practice	ambiguous_practice	0.0	preferred_right	3600.0	0.0		8.67402380000567	0.03324989997781813
0	3.12607100000605	stim	91		2	ambiguous_practice	ambiguous_practice	0.0	preferred_right	3600.0	0.0		8.707273699983489	0.03384889999870211
0	3.159919900004752	stim	92		2	ambiguous_practice	ambiguous_practice	0.0	preferred_right	3600.0	0.0		8.74112259998219	0.03353590000187978
0	3.1934558000066318	stim	93		2	ambiguous_practice	ambiguous_practice	0.0	preferred_right	3600.0	0.0		8.77465849998407	0.03321600001072511
0	3.226671800017357	stim	94		2	ambiguous_practice	ambiguous_practice	0.0	preferred_right	3600.0	0.0		8.807874499994796	0.033339699963107705
0	3.2600114999804646	stim	95		2	ambiguous_practice	ambiguous_practice	0.0	preferred_right	3600.0	0.0		8.841214199957903	0.03326250001555309
0	3.2932739999960177	stim	96		2	ambiguous_practice	ambiguous_practice	0.0	preferred_right	3600.0	0.0		8.874476699973457	0.033634699997492135
0	3.32690869999351	stim	97		2	ambiguous_practice	ambiguous_practice	0.0	preferred_right	3600.0	0.0		8.908111399970949	0.047658300027251244
0	3.374567000020761	stim	98		2	ambiguous_practice	ambiguous_practice	0.0	preferred_right	3600.0	0.0		8.9557696999982	0.03553429996827617
0	3.410101299989037	stim	99		2	ambiguous_practice	ambiguous_practice	0.0	preferred_right	3600.0	0.0		8.991303999966476	0.03300080000190064
0	3.443102099990938	stim	100		2	ambiguous_practice	ambiguous_practice	0.0	preferred_right	3600.0	0.0		9.024304799968377	0.03354800003580749
0	3.4766501000267453	stim	101		2	ambiguous_practice	ambiguous_practice	0.0	preferred_right	3600.0	0.0		9.057852800004184	0.033301199960988015
0	3.5099512999877334	stim	102		2	ambiguous_practice	ambiguous_practice	0.0	preferred_right	3600.0	0.0		9.091153999965172	0.033510400040540844
0	3.543461700028274	stim	103		2	ambiguous_practice	ambiguous_practice	0.0	preferred_right	3600.0	0.0		9.124664400005713	0.033358999993652105
0	3.5768207000219263	stim	104		2	ambiguous_practice	ambiguous_practice	0.0	preferred_right	3600.0	0.0		9.158023399999365	0.0331727999728173
0	3.6099934999947436	stim	105		2	ambiguous_practice	ambiguous_practice	0.0	preferred_right	3600.0	0.0		9.191196199972183	0.033270400017499924
0	3.6432639000122435	stim	106		2	ambiguous_practice	ambiguous_practice	0.0	preferred_right	3600.0	0.0		9.224466599989682	0.03374629997415468
0	3.677010199986398	stim	107		2	ambiguous_practice	ambiguous_practice	0.0	preferred_right	3600.0	0.0		9.258212899963837	0.033190099988132715
0	3.710200299974531	stim	108		2	ambiguous_practice	ambiguous_practice	0.0	preferred_right	3600.0	0.0		9.29140299995197	0.03321810002671555
0	3.7434184000012465	stim	109		2	ambiguous_practice	ambiguous_practice	0.0	preferred_right	3600.0	0.0		9.324621099978685	0.0332979999948293
0	3.776716399996076	stim	110		2	ambiguous_practice	ambiguous_practice	0.0	preferred_right	3600.0	0.0		9.357919099973515	0.03331339999567717
0	3.810029799991753	stim	111		2	ambiguous_practice	ambiguous_practice	0.0	preferred_right	3600.0	0.0		9.391232499969192	0.03312909998930991
0	3.843158899981063	stim	112		2	ambiguous_practice	ambiguous_practice	0.0	preferred_right	3600.0	0.0		9.424361599958502	0.033626000047661364
0	3.8767849000287242	stim	113		2	ambiguous_practice	ambiguous_practice	0.0	preferred_right	3600.0	0.0		9.457987600006163	0.033704299945384264
0	3.9104891999741085	stim	114		2	ambiguous_practice	ambiguous_practice	0.0	preferred_right	3600.0	0.0		9.491691899951547	0.03265500004636124
0	3.9431442000204697	stim	115		2	ambiguous_practice	ambiguous_practice	0.0	preferred_right	3600.0	0.0		9.524346899997909	0.03364109998801723
0	3.976785300008487	stim	116		2	ambiguous_practice	ambiguous_practice	0.0	preferred_right	3600.0	0.0		9.557987999985926	0.03322149999439716
0	4.010006800002884	stim	117		2	ambiguous_practice	ambiguous_practice	0.0	preferred_right	3600.0	0.0		9.591209499980323	0.033323400013614446
0	4.043330200016499	stim	118		2	ambiguous_practice	ambiguous_practice	0.0	preferred_right	3600.0	0.0		9.624532899993937	0.0338740999577567
0	4.077204299974255	stim	119		2	ambiguous_practice	ambiguous_practice	0.0	preferred_right	3600.0	0.0		9.658406999951694	0.03269210003782064
0	4.109896400012076	stim	120		2	ambiguous_practice	ambiguous_practice	0.0	preferred_right	3600.0	0.0		9.691099099989515	0.03351350000593811
0	4.143409900018014	stim	121		2	ambiguous_practice	ambiguous_practice	0.0	preferred_right	3600.0	0.0		9.724612599995453	0.033483600011095405
0	4.176893500029109	stim	122		2	ambiguous_practice	ambiguous_practice	0.0	preferred_right	3600.0	0.0		9.758096200006548	0.0331785999587737
0	4.210072099987883	stim	123		2	ambiguous_practice	ambiguous_practice	0.0	preferred_right	3600.0	0.0		9.791274799965322	0.033467400004155934
0	4.243539499992039	stim	124		2	ambiguous_practice	ambiguous_practice	0.0	preferred_right	3600.0	0.0		9.824742199969478	0.03329769999254495
0	4.276837199984584	stim	125		2	ambiguous_practice	ambiguous_practice	0.0	preferred_right	3600.0	0.0		9.858039899962023	0.033415200014133006
0	4.310252399998717	stim	126		2	ambiguous_practice	ambiguous_practice	0.0	preferred_right	3600.0	0.0		9.891455099976156	0.033386999974027276
0	4.343639399972744	stim	127		2	ambiguous_practice	ambiguous_practice	0.0	preferred_right	3600.0	0.0		9.924842099950183	0.032931900001131
0	4.376571299973875	stim	128		2	ambiguous_practice	ambiguous_practice	0.0	preferred_right	3600.0	0.0		9.957773999951314	0.03379870002390817
0	4.4103699999977835	stim	129		2	ambiguous_practice	ambiguous_practice	0.0	preferred_right	3600.0	0.0		9.991572699975222	0.03375230001984164
0	4.444122300017625	stim	130		2	ambiguous_practice	ambiguous_practice	0.0	preferred_right	3600.0	0.0		10.025324999995064	0.03329940000548959
0	4.477421700023115	stim	131		2	ambiguous_practice	ambiguous_practice	0.0	preferred_right	3600.0	0.0		10.058624400000554	0.03308869997272268
0	4.510510399995837	stim	132		2	ambiguous_practice	ambiguous_practice	0.0	preferred_right	3600.0	0.0		10.091713099973276	0.033453900017775595
0	4.543964300013613	stim	133		2	ambiguous_practice	ambiguous_practice	0.0	preferred_right	3600.0	0.0		10.125166999991052	0.03330760000972077
0	4.577271900023334	stim	134		2	ambiguous_practice	ambiguous_practice	0.0	preferred_right	3600.0	0.0		10.158474600000773	0.03321329999016598
0	4.6104852000135	stim	135		2	ambiguous_practice	ambiguous_practice	0.0	preferred_right	3600.0	0.0		10.191687899990939	0.033584299962967634
0	4.644069499976467	stim	136		2	ambiguous_practice	ambiguous_practice	0.0	preferred_right	3600.0	0.0		10.225272199953906	0.03330560005269945
0	4.677375100029167	stim	137		2	ambiguous_practice	ambiguous_practice	0.0	preferred_right	3600.0	0.0		10.258577800006606	0.033277599955908954
0	4.710652699985076	stim	138		2	ambiguous_practice	ambiguous_practice	0.0	preferred_right	3600.0	0.0		10.291855399962515	0.033492300019133836
0	4.74414500000421	stim	139		2	ambiguous_practice	ambiguous_practice	0.0	preferred_right	3600.0	0.0		10.325347699981648	0.03327130002435297
0	4.7774163000285625	stim	140		2	ambiguous_practice	ambiguous_practice	0.0	preferred_right	3600.0	0.0		10.358619000006001	0.03374319995054975
0	4.811159499979112	stim	141		2	ambiguous_practice	ambiguous_practice	0.0	preferred_right	3600.0	0.0		10.392362199956551	0.03297000000020489
0	4.844129499979317	stim	142		2	ambiguous_practice	ambiguous_practice	0.0	preferred_right	3600.0	0.0		10.425332199956756	0.033731200033798814
0	4.877860700013116	stim	143		2	ambiguous_practice	ambiguous_practice	0.0	preferred_right	3600.0	0.0		10.459063399990555	0.033253700006753206
0	4.911114400019869	stim	144		2	ambiguous_practice	ambiguous_practice	0.0	preferred_right	3600.0	0.0		10.492317099997308	0.03331869997782633
0	4.9444330999976955	stim	145		2	ambiguous_practice	ambiguous_practice	0.0	preferred_right	3600.0	0.0		10.525635799975134	0.033436199999414384
0	4.97786929999711	stim	146		2	ambiguous_practice	ambiguous_practice	0.0	preferred_right	3600.0	0.0		10.559071999974549	0.03378040000097826
0	5.011649699998088	stim	147		2	ambiguous_practice	ambiguous_practice	0.0	preferred_right	3600.0	0.0		10.592852399975527	0.03291399998124689
0	5.044563699979335	stim	148		2	ambiguous_practice	ambiguous_practice	0.0	preferred_right	3600.0	0.0		10.625766399956774	0.033351699996273965
0	5.077915399975609	stim	149		2	ambiguous_practice	ambiguous_practice	0.0	preferred_right	3600.0	0.0		10.659118099953048	0.03272680001100525
0	5.110642199986614	stim	150		2	ambiguous_practice	ambiguous_practice	0.0	preferred_right	3600.0	0.0		10.691844899964053	0.03385160001926124
0	5.1444938000058755	stim	151		2	ambiguous_practice	ambiguous_practice	0.0	preferred_right	3600.0	0.0		10.725696499983314	0.033195799973327667
0	5.177689599979203	stim	152		2	ambiguous_practice	ambiguous_practice	0.0	preferred_right	3600.0	0.0		10.758892299956642	0.033579900045879185
0	5.211269500025082	stim	153		2	ambiguous_practice	ambiguous_practice	0.0	preferred_right	3600.0	0.0		10.792472200002521	0.03339219995541498
0	5.244661699980497	stim	154		2	ambiguous_practice	ambiguous_practice	0.0	preferred_right	3600.0	0.0		10.825864399957936	0.033258500043302774
0	5.2779202000238	stim	155		2	ambiguous_practice	ambiguous_practice	0.0	preferred_right	3600.0	0.0		10.859122900001239	0.033812299952842295
0	5.311732499976642	stim	156		2	ambiguous_practice	ambiguous_practice	0.0	preferred_right	3600.0	0.0		10.892935199954081	0.03322020004270598
0	5.344952700019348	stim	157		2	ambiguous_practice	ambiguous_practice	0.0	preferred_right	3600.0	0.0		10.926155399996787	0.03293469996424392
0	5.377887399983592	stim	158		2	ambiguous_practice	ambiguous_practice	0.0	preferred_right	3600.0	0.0		10.959090099961031	0.03387270000530407
0	5.411760099988896	stim	159		2	ambiguous_practice	ambiguous_practice	0.0	preferred_right	3600.0	0.0		10.992962799966335	0.033299700007773936
0	5.44505979999667	stim	160		2	ambiguous_practice	ambiguous_practice	0.0	preferred_right	3600.0	0.0		11.02626249997411	0.033344299998134375
0	5.478404099994805	stim	161		2	ambiguous_practice	ambiguous_practice	0.0	preferred_right	3600.0	0.0		11.059606799972244	0.03317940002307296
0	5.511583500017878	stim	162		2	ambiguous_practice	ambiguous_practice	0.0	preferred_right	3600.0	0.0		11.092786199995317	0.03367709997110069
0	5.545260599988978	stim	163		2	ambiguous_practice	ambiguous_practice	0.0	preferred_right	3600.0	0.0		11.126463299966417	0.050233200017828494
0	5.595493800006807	stim	164		2	ambiguous_practice	ambiguous_practice	0.0	preferred_right	3600.0	0.0		11.176696499984246	0.04946299997391179
0	5.644956799980719	stim	165		2	ambiguous_practice	ambiguous_practice	0.0	preferred_right	3600.0	0.0		11.226159499958158	0.05051359999924898
0	5.695470399979968	stim	166		2	ambiguous_practice	ambiguous_practice	0.0	preferred_right	3600.0	0.0		11.276673099957407	0.05017920001409948
0	5.745649599994067	stim	167		2	ambiguous_practice	ambiguous_practice	0.0	preferred_right	3600.0	0.0		11.326852299971506	0.050000299990642816
0	5.79564989998471	stim	168		2	ambiguous_practice	ambiguous_practice	0.0	preferred_right	3600.0	0.0		11.376852599962149	0.049901199992746115
0	5.845551099977456	stim	169		2	ambiguous_practice	ambiguous_practice	0.0	preferred_right	3600.0	0.0		11.426753799954895	0.05042030004551634
0	5.895971400022972	stim	170		2	ambiguous_practice	ambiguous_practice	0.0	preferred_right	3600.0	0.0		11.477174100000411	0.03344709996599704
0	5.929418499988969	stim	171		2	ambiguous_practice	ambiguous_practice	0.0	preferred_right	3600.0	0.0		11.510621199966408	0.033284800010733306
0	5.962703299999703	stim	172		2	ambiguous_practice	ambiguous_practice	0.0	preferred_right	3600.0	0.0		11.543905999977142	0.03362310002557933
0	5.996326400025282	stim	173		2	ambiguous_practice	ambiguous_practice	0.0	preferred_right	3600.0	0.0		11.577529100002721	0.0334030999802053
0	6.029729500005487	stim	174		2	ambiguous_practice	ambiguous_practice	0.0	preferred_right	3600.0	0.0		11.610932199982926	0.03272850002394989
0	6.062458000029437	stim	175		2	ambiguous_practice	ambiguous_practice	0.0	preferred_right	3600.0	0.0		11.643660700006876	0.03330189996631816
0	6.095759899995755	stim	176		2	ambiguous_practice	ambiguous_practice	0.0	preferred_right	3600.0	0.0		11.676962599973194	0.03394230001140386
0	6.129702200007159	stim	177		2	ambiguous_practice	ambiguous_practice	0.0	preferred_right	3600.0	0.0		11.710904899984598	0.033182599989231676
0	6.162884799996391	stim	178		2	ambiguous_practice	ambiguous_practice	0.0	preferred_right	3600.0	0.0		11.74408749997383	0.033569600025657564
0	6.1964544000220485	stim	179		2	ambiguous_practice	ambiguous_practice	0.0	preferred_right	3600.0	0.0		11.777657099999487	0.03394659998593852
0	6.230401000007987	stim	180		2	ambiguous_practice	ambiguous_practice	0.0	preferred_right	3600.0	0.0		11.811603699985426	0.04983959998935461
0	6.280240599997342	stim	181		2	ambiguous_practice	ambiguous_practice	0.0	preferred_right	3600.0	0.0		11.86144329997478	0.03414489998249337
0	6.314385499979835	stim	182		2	ambiguous_practice	ambiguous_practice	0.0	preferred_right	3600.0	0.0		11.895588199957274	0.032845100038684905
0	6.34723060001852	stim	183		2	ambiguous_practice	ambiguous_practice	0.0	preferred_right	3600.0	0.0		11.928433299995959	0.033932299993466586
0	6.3811629000119865	stim	184		2	ambiguous_practice	ambiguous_practice	0.0	preferred_right	3600.0	0.0		11.962365599989425	0.03284150001127273
0	6.414004400023259	stim	185		2	ambiguous_practice	ambiguous_practice	0.0	preferred_right	3600.0	0.0		11.995207100000698	0.03338939999230206
0	6.447393800015561	stim	186		2	ambiguous_practice	ambiguous_practice	0.0	preferred_right	3600.0	0.0		12.028596499993	0.03333879995625466
0	6.480732599971816	stim	187		2	ambiguous_practice	ambiguous_practice	0.0	preferred_right	3600.0	0.0		12.061935299949255	0.03318700002273545
0	6.513919599994551	stim	188		2	ambiguous_practice	ambiguous_practice	0.0	preferred_right	3600.0	0.0		12.09512229997199	0.03321600001072511
0	6.5471356000052765	stim	189		2	ambiguous_practice	ambiguous_practice	0.0	preferred_right	3600.0	0.0		12.128338299982715	0.03323729999829084
0	6.580372900003567	stim	190		2	ambiguous_practice	ambiguous_practice	0.0	preferred_right	3600.0	0.0		12.161575599981006	0.03395569999702275
0	6.61432860000059	stim	191		2	ambiguous_practice	ambiguous_practice	0.0	preferred_right	3600.0	0.0		12.195531299978029	0.03329559997655451
0	6.647624199977145	stim	192		2	ambiguous_practice	ambiguous_practice	0.0	preferred_right	3600.0	0.0		12.228826899954583	0.033435300050769
0	6.681059500027914	stim	193		2	ambiguous_practice	ambiguous_practice	0.0	preferred_right	3600.0	0.0		12.262262200005352	0.0331171999569051
0	6.714176699984819	stim	194		2	ambiguous_practice	ambiguous_practice	0.0	preferred_right	3600.0	0.0		12.295379399962258	0.03342670004349202
0	6.747603400028311	stim	195		2	ambiguous_practice	ambiguous_practice	0.0	preferred_right	3600.0	0.0		12.32880610000575	0.033437699952628464
0	6.781041099980939	stim	196		2	ambiguous_practice	ambiguous_practice	0.0	preferred_right	3600.0	0.0		12.362243799958378	0.032964900019578636
0	6.814006000000518	stim	197		2	ambiguous_practice	ambiguous_practice	0.0	preferred_right	3600.0	0.0		12.395208699977957	0.03399550000904128
0	6.848001500009559	stim	198		2	ambiguous_practice	ambiguous_practice	0.0	preferred_right	3600.0	0.0		12.429204199986998	0.03311049996409565
0	6.881111999973655	stim	199		2	ambiguous_practice	ambiguous_practice	0.0	preferred_right	3600.0	0.0		12.462314699951094	0.03347360005136579
0	6.9145856000250205	stim	200		2	ambiguous_practice	ambiguous_practice	0.0	preferred_right	3600.0	0.0		12.49578830000246	0.033861299976706505
0	6.948446900001727	stim	201		2	ambiguous_practice	ambiguous_practice	0.0	preferred_right	3600.0	0.0		12.529649599979166	0.03319220000412315
0	6.98163910000585	stim	202		2	ambiguous_practice	ambiguous_practice	0.0	preferred_right	3600.0	0.0		12.562841799983289	0.033416699967347085
0	7.015055799973197	stim	203		2	ambiguous_practice	ambiguous_practice	0.0	preferred_right	3600.0	0.0		12.596258499950636	0.033024100004695356
0	7.048079899977893	stim	204		2	ambiguous_practice	ambiguous_practice	0.0	preferred_right	3600.0	0.0		12.629282599955332	0.03340840002056211
0	7.081488299998455	stim	205		2	ambiguous_practice	ambiguous_practice	0.0	preferred_right	3600.0	0.0		12.662690999975894	0.03317589999642223
0	7.114664199994877	stim	206		2	ambiguous_practice	ambiguous_practice	0.0	preferred_right	3600.0	0.0		12.695866899972316	0.03358099999604747
0	7.1482451999909244	stim	207		2	ambiguous_practice	ambiguous_practice	0.0	preferred_right	3600.0	0.0		12.729447899968363	0.03330040001310408
0	7.1815456000040285	stim	208		2	ambiguous_practice	ambiguous_practice	0.0	preferred_right	3600.0	0.0		12.762748299981467	0.03386179998051375
0	7.215407399984542	stim	209		2	ambiguous_practice	ambiguous_practice	0.0	preferred_right	3600.0	0.0		12.796610099961981	0.033459900005254894
0	7.248867299989797	stim	210		2	ambiguous_practice	ambiguous_practice	0.0	preferred_right	3600.0	0.0		12.830069999967236	0.033094000013079494
0	7.281961300002877	stim	211		2	ambiguous_practice	ambiguous_practice	0.0	preferred_right	3600.0	0.0		12.863163999980316	0.033336899999994785
0	7.3152982000028715	stim	212		2	ambiguous_practice	ambiguous_practice	0.0	preferred_right	3600.0	0.0		12.89650089998031	0.033659900014754385
0	7.348958100017626	stim	213		2	ambiguous_practice	ambiguous_practice	0.0	preferred_right	3600.0	0.0		12.930160799995065	0.03364290000172332
0	7.382601000019349	stim	214		2	ambiguous_practice	ambiguous_practice	0.0	preferred_right	3600.0	0.0		12.963803699996788	0.03302599996095523
0	7.415626999980304	stim	215		2	ambiguous_practice	ambiguous_practice	0.0	preferred_right	3600.0	0.0		12.996829699957743	0.033336899999994785
0	7.448963899980299	stim	216		2	ambiguous_practice	ambiguous_practice	0.0	preferred_right	3600.0	0.0		13.030166599957738	0.0335468000266701
0	7.482510700006969	stim	217		2	ambiguous_practice	ambiguous_practice	0.0	preferred_right	3600.0	0.0		13.063713399984408	0.0335893000010401
0	7.516100000008009	stim	218		2	ambiguous_practice	ambiguous_practice	0.0	preferred_right	3600.0	0.0		13.097302699985448	0.03300850000232458
0	7.549108500010334	stim	219		2	ambiguous_practice	ambiguous_practice	0.0	preferred_right	3600.0	0.0		13.130311199987773	0.0332415999728255
0	7.5823500999831595	stim	220		2	ambiguous_practice	ambiguous_practice	0.0	preferred_right	3600.0	0.0		13.163552799960598	0.03387550002662465
0	7.616225600009784	stim	221		2	ambiguous_practice	ambiguous_practice	0.0	preferred_right	3600.0	0.0		13.197428299987223	0.03332089999457821
0	7.649546500004362	stim	222		2	ambiguous_practice	ambiguous_practice	0.0	preferred_right	3600.0	0.0		13.230749199981801	0.03297940001357347
0	7.682525900017936	stim	223		2	ambiguous_practice	ambiguous_practice	0.0	preferred_right	3600.0	0.0		13.263728599995375	0.03359279996948317
0	7.716118699987419	stim	224		2	ambiguous_practice	ambiguous_practice	0.0	preferred_right	3600.0	0.0		13.297321399964858	0.03319089999422431
0	7.749309599981643	stim	225		2	ambiguous_practice	ambiguous_practice	0.0	preferred_right	3600.0	0.0		13.330512299959082	0.033579800045117736
0	7.782889400026761	stim	226		2	ambiguous_practice	ambiguous_practice	0.0	preferred_right	3600.0	0.0		13.3640921000042	0.03278499998850748
0	7.8156744000152685	stim	227		2	ambiguous_practice	ambiguous_practice	0.0	preferred_right	3600.0	0.0		13.396877099992707	0.03387240000301972
0	7.849546800018288	stim	228		2	ambiguous_practice	ambiguous_practice	0.0	preferred_right	3600.0	0.0		13.430749499995727	0.033465699991211295
0	7.8830125000094995	stim	229		2	ambiguous_practice	ambiguous_practice	0.0	preferred_right	3600.0	0.0		13.464215199986938	0.03316150000318885
0	7.916174000012688	stim	230		2	ambiguous_practice	ambiguous_practice	0.0	preferred_right	3600.0	0.0		13.497376699990127	0.0335637999814935
0	7.949737799994182	stim	231		2	ambiguous_practice	ambiguous_practice	0.0	preferred_right	3600.0	0.0		13.53094049997162	0.033210800029337406
0	7.982948600023519	stim	232		2	ambiguous_practice	ambiguous_practice	0.0	preferred_right	3600.0	0.0		13.564151300000958	0.032970899948850274
0	8.01591949997237	stim	233		2	ambiguous_practice	ambiguous_practice	0.0	preferred_right	3600.0	0.0		13.597122199949808	0.03355360002024099
0	8.04947309999261	stim	234		2	ambiguous_practice	ambiguous_practice	0.0	preferred_right	3600.0	0.0		13.63067579997005	0.033494000032078475
0	8.082967100024689	stim	235		2	ambiguous_practice	ambiguous_practice	0.0	preferred_right	3600.0	0.0		13.664169800002128	0.03348579996963963
0	8.116452899994329	stim	236		2	ambiguous_practice	ambiguous_practice	0.0	preferred_right	3600.0	0.0		13.697655599971768	0.033444900007452816
0	8.149897800001781	stim	237		2	ambiguous_practice	ambiguous_practice	0.0	preferred_right	3600.0	0.0		13.73110049997922	0.033145900000818074
0	8.1830437000026	stim	238		2	ambiguous_practice	ambiguous_practice	0.0	preferred_right	3600.0	0.0		13.764246399980038	0.03333339997334406
0	8.216377099975944	stim	239		2	ambiguous_practice	ambiguous_practice	0.0	preferred_right	3600.0	0.0		13.797579799953382	0.03331850003451109
0	8.249695600010455	stim	240		2	ambiguous_practice	ambiguous_practice	0.0	preferred_right	3600.0	0.0		13.830898299987894	0.033138200000394136
0	8.282833800010849	stim	241		2	ambiguous_practice	ambiguous_practice	0.0	preferred_right	3600.0	0.0		13.864036499988288	0.0332660999847576
0	8.316099899995606	stim	242		2	ambiguous_practice	ambiguous_practice	0.0	preferred_right	3600.0	0.0		13.897302599973045	0.03372389997821301
0	8.34982379997382	stim	243		2	ambiguous_practice	ambiguous_practice	0.0	preferred_right	3600.0	0.0		13.931026499951258	0.033507400017697364
0	8.383331199991517	stim	244		2	ambiguous_practice	ambiguous_practice	0.0	preferred_right	3600.0	0.0		13.964533899968956	0.03324279998196289
0	8.41657399997348	stim	245		2	ambiguous_practice	ambiguous_practice	0.0	preferred_right	3600.0	0.0		13.997776699950919	0.03347680001752451
0	8.450050799991004	stim	246		2	ambiguous_practice	ambiguous_practice	0.0	preferred_right	3600.0	0.0		14.031253499968443	0.03340180002851412
0	8.483452600019518	stim	247		2	ambiguous_practice	ambiguous_practice	0.0	preferred_right	3600.0	0.0		14.064655299996957	0.03329880000092089
0	8.51675140002044	stim	248		2	ambiguous_practice	ambiguous_practice	0.0	preferred_right	3600.0	0.0		14.097954099997878	0.03282299998681992
0	8.549574400007259	stim	249		2	ambiguous_practice	ambiguous_practice	0.0	preferred_right	3600.0	0.0		14.130777099984698	0.0333227000082843
0	8.582897100015543	stim	250		2	ambiguous_practice	ambiguous_practice	0.0	preferred_right	3600.0	0.0		14.164099799992982	0.033762099978048354
0	8.616659199993592	stim	251		2	ambiguous_practice	ambiguous_practice	0.0	preferred_right	3600.0	0.0		14.19786189997103	0.03347870003199205
0	8.650137900025584	stim	252		2	ambiguous_practice	ambiguous_practice	0.0	preferred_right	3600.0	0.0		14.231340600003023	0.033348399971146137
0	8.68348629999673	stim	253		2	ambiguous_practice	ambiguous_practice	0.0	preferred_right	3600.0	0.0		14.264688999974169	0.03319960000226274
0	8.716685899998993	stim	254		2	ambiguous_practice	ambiguous_practice	0.0	preferred_right	3600.0	0.0		14.297888599976432	0.03363880002871156
0	8.750324700027704	stim	255		2	ambiguous_practice	ambiguous_practice	0.0	preferred_right	3600.0	0.0		14.331527400005143	0.033210899971891195
0	8.783535599999595	stim	256		2	ambiguous_practice	ambiguous_practice	0.0	preferred_right	3600.0	0.0		14.364738299977034	0.03300250001484528
0	8.81653810001444	stim	257		2	ambiguous_practice	ambiguous_practice	0.0	preferred_right	3600.0	0.0		14.39774079999188	0.03395959996851161
0	8.850497699982952	stim	258		2	ambiguous_practice	ambiguous_practice	0.0	preferred_right	3600.0	0.0		14.431700399960391	0.03349870000965893
0	8.883996399992611	stim	259		2	ambiguous_practice	ambiguous_practice	0.0	preferred_right	3600.0	0.0		14.46519909997005	0.033147400012239814
0	8.917143800004851	stim	260		2	ambiguous_practice	ambiguous_practice	0.0	preferred_right	3600.0	0.0		14.49834649998229	0.03347640001447871
0	8.95062020001933	stim	261		2	ambiguous_practice	ambiguous_practice	0.0	preferred_right	3600.0	0.0		14.531822899996769	0.032996099966112524
0	8.983616299985442	stim	262		2	ambiguous_practice	ambiguous_practice	0.0	preferred_right	3600.0	0.0		14.564818999962881	0.03383219998795539
0	9.017448499973398	stim	263		2	ambiguous_practice	ambiguous_practice	0.0	preferred_right	3600.0	0.0		14.598651199950837	0.03359840001212433
0	9.051046899985522	stim	264		2	ambiguous_practice	ambiguous_practice	0.0	preferred_right	3600.0	0.0		14.632249599962961	0.032662799989338964
0	9.083709699974861	stim	265		2	ambiguous_practice	ambiguous_practice	0.0	preferred_right	3600.0	0.0		14.6649123999523	0.03357890003826469
0	9.117288600013126	stim	266		2	ambiguous_practice	ambiguous_practice	0.0	preferred_right	3600.0	0.0		14.698491299990565	0.033959099964704365
0	9.15124769997783	stim	267		2	ambiguous_practice	ambiguous_practice	0.0	preferred_right	3600.0	0.0		14.732450399955269	0.03343710000626743
0	9.184684799984097	stim	268		2	ambiguous_practice	ambiguous_practice	0.0	preferred_right	3600.0	0.0		14.765887499961536	0.03333370003383607
0	9.218018500017934	stim	269		2	ambiguous_practice	ambiguous_practice	0.0	preferred_right	3600.0	0.0		14.799221199995372	0.033309899969026446
0	9.25132839998696	stim	270		2	ambiguous_practice	ambiguous_practice	0.0	preferred_right	3600.0	0.0		14.832531099964399	0.03353409998817369
0	9.284862499975134	stim	271		2	ambiguous_practice	ambiguous_practice	0.0	preferred_right	3600.0	0.0		14.866065199952573	0.03297930001281202
0	9.317841799987946	stim	272		2	ambiguous_practice	ambiguous_practice	0.0	preferred_right	3600.0	0.0		14.899044499965385	0.03360740002244711
0	9.351449200010393	stim	273		2	ambiguous_practice	ambiguous_practice	0.0	preferred_right	3600.0	0.0		14.932651899987832	0.033366299991030246
0	9.384815500001423	stim	274		2	ambiguous_practice	ambiguous_practice	0.0	preferred_right	3600.0	0.0		14.966018199978862	0.03325350000523031
0	9.418069000006653	stim	275		2	ambiguous_practice	ambiguous_practice	0.0	preferred_right	3600.0	0.0		14.999271699984092	0.03310619998956099
0	9.451175199996214	stim	276		2	ambiguous_practice	ambiguous_practice	0.0	preferred_right	3600.0	0.0		15.032377899973653	0.033634799998253584
0	9.484809999994468	stim	277		2	ambiguous_practice	ambiguous_practice	0.0	preferred_right	3600.0	0.0		15.066012699971907	0.03307629999471828
0	9.517886299989186	stim	278		2	ambiguous_practice	ambiguous_practice	0.0	preferred_right	3600.0	0.0		15.099088999966625	0.03327260003425181
0	9.551158900023438	stim	279		2	ambiguous_practice	ambiguous_practice	0.0	preferred_right	3600.0	0.0		15.132361600000877	0.03337409999221563
0	9.584533000015654	stim	280		2	ambiguous_practice	ambiguous_practice	0.0	preferred_right	3600.0	0.0		15.165735699993093	0.033942799957003444
0	9.618475799972657	stim	281		2	ambiguous_practice	ambiguous_practice	0.0	preferred_right	3600.0	0.0		15.199678499950096	0.033258300041779876
0	9.651734100014437	stim	282		2	ambiguous_practice	ambiguous_practice	0.0	preferred_right	3600.0	0.0		15.232936799991876	0.03327799995895475
0	9.685012099973392	stim	283		2	ambiguous_practice	ambiguous_practice	0.0	preferred_right	3600.0	0.0		15.26621479995083	0.033090800046920776
0	9.718102900020313	stim	284		2	ambiguous_practice	ambiguous_practice	0.0	preferred_right	3600.0	0.0		15.299305599997751	0.033601799979805946
0	9.751704700000118	stim	285		2	ambiguous_practice	ambiguous_practice	0.0	preferred_right	3600.0	0.0		15.332907399977557	0.03374649997567758
0	9.785451199975796	stim	286		2	ambiguous_practice	ambiguous_practice	0.0	preferred_right	3600.0	0.0		15.366653899953235	0.03281130001414567
0	9.818262499989942	stim	287		2	ambiguous_practice	ambiguous_practice	0.0	preferred_right	3600.0	0.0		15.39946519996738	0.03334239998366684
0	9.851604899973609	stim	288		2	ambiguous_practice	ambiguous_practice	0.0	preferred_right	3600.0	0.0		15.432807599951047	0.03380990005098283
0	9.885414800024591	stim	289		2	ambiguous_practice	ambiguous_practice	0.0	preferred_right	3600.0	0.0		15.46661750000203	0.03317189996596426
0	9.918586699990556	stim	290		2	ambiguous_practice	ambiguous_practice	0.0	preferred_right	3600.0	0.0		15.499789399967995	0.03351959999417886
0	9.952106299984735	stim	291		2	ambiguous_practice	ambiguous_practice	0.0	preferred_right	3600.0	0.0		15.533308999962173	0.03338310000253841
0	9.985489399987273	stim	292		2	ambiguous_practice	ambiguous_practice	0.0	preferred_right	3600.0	0.0		15.566692099964712	0.03356760001042858
0	10.019056999997701	stim	293		2	ambiguous_practice	ambiguous_practice	0.0	preferred_right	3600.0	0.0		15.60025969997514	0.03338390000863001
0	10.052440900006332	stim	294		2	ambiguous_practice	ambiguous_practice	0.0	preferred_right	3600.0	0.0		15.63364359998377	0.0326140999677591
0	10.08505499997409	stim	295		2	ambiguous_practice	ambiguous_practice	0.0	preferred_right	3600.0	0.0		15.66625769995153	0.03402940003434196
0	10.119084400008433	stim	296		2	ambiguous_practice	ambiguous_practice	0.0	preferred_right	3600.0	0.0		15.700287099985871	0.03323070000624284
0	10.152315100014675	stim	297		2	ambiguous_practice	ambiguous_practice	0.0	preferred_right	3600.0	0.0		15.733517799992114	0.03371089999563992
0	10.186026000010315	stim	298		2	ambiguous_practice	ambiguous_practice	0.0	preferred_right	3600.0	0.0		15.767228699987754	0.03333810000913218
0	10.219364100019448	stim	299		2	ambiguous_practice	ambiguous_practice	0.0	preferred_right	3600.0	0.0		15.800566799996886	0.03339379996759817
0	10.252757899987046	stim	300		2	ambiguous_practice	ambiguous_practice	0.0	preferred_right	3600.0	0.0		15.833960599964485	0.03317050001351163
0	10.285928400000557	stim	301		2	ambiguous_practice	ambiguous_practice	0.0	preferred_right	3600.0	0.0		15.867131099977996	0.03313280001748353
0	10.31906120001804	stim	302		0	ambiguous_practice	ambiguous_practice	0.0	preferred_right	3600.0	0.0		15.90026389999548	-0.41665510000893846
0	9.902406100009102	ambiguous_practice	302	i	2	ambiguous_practice	ambiguous_practice	0.0	preferred_right	3600.0	0.0	4.867936599999666	15.483608799986541	0.4669346999726258
0	10.369340799981728	stim	303		2	ambiguous_practice	ambiguous_practice	0.0	preferred_right	3600.0	0.0		15.950543499959167	0.03343120001954958
0	10.402772000001278	stim	304		2	ambiguous_practice	ambiguous_practice	0.0	preferred_right	3600.0	0.0		15.983974699978717	0.0333538000122644
0	10.436125800013542	stim	305		2	ambiguous_practice	ambiguous_practice	0.0	preferred_right	3600.0	0.0		16.01732849999098	0.03330690000439063
0	10.469432700017933	stim	306		2	ambiguous_practice	ambiguous_practice	0.0	preferred_right	3600.0	0.0		16.05063539999537	0.03402069996809587
0	10.503453399986029	stim	307		2	ambiguous_practice	ambiguous_practice	0.0	preferred_right	3600.0	0.0		16.084656099963468	0.033639100030995905
0	10.537092500017025	stim	308		2	ambiguous_practice	ambiguous_practice	0.0	preferred_right	3600.0	0.0		16.118295199994463	0.03297429997473955
0	10.570066799991764	stim	309		2	ambiguous_practice	ambiguous_practice	0.0	preferred_right	3600.0	0.0		16.151269499969203	0.050310100021306425
0	10.62037690001307	stim	310		2	ambiguous_practice	ambiguous_practice	0.0	preferred_right	3600.0	0.0		16.20157959999051	0.0329996999935247
0	10.653376600006595	stim	311		2	ambiguous_practice	ambiguous_practice	0.0	preferred_right	3600.0	0.0		16.234579299984034	0.03358170000137761
0	10.686958300007973	stim	312		2	ambiguous_practice	ambiguous_practice	0.0	preferred_right	3600.0	0.0		16.26816099998541	0.0336638999870047
0	10.720622199994978	stim	313		2	ambiguous_practice	ambiguous_practice	0.0	preferred_right	3600.0	0.0		16.301824899972416	0.050281999981962144
0	10.77090419997694	stim	314		2	ambiguous_practice	ambiguous_practice	0.0	preferred_right	3600.0	0.0		16.35210689995438	0.050362200010567904
0	10.821266399987508	stim	315		2	ambiguous_practice	ambiguous_practice	0.0	preferred_right	3600.0	0.0		16.402469099964947	0.04983730003004894
0	10.871103700017557	stim	316		2	ambiguous_practice	ambiguous_practice	0.0	preferred_right	3600.0	0.0		16.452306399994995	0.0333913000067696
0	10.904495000024326	stim	317		2	ambiguous_practice	ambiguous_practice	0.0	preferred_right	3600.0	0.0		16.485697700001765	0.03336869995109737
0	10.937863699975424	stim	318		2	ambiguous_practice	ambiguous_practice	0.0	preferred_right	3600.0	0.0		16.519066399952862	0.0333482000278309
0	10.971211900003254	stim	319		2	ambiguous_practice	ambiguous_practice	0.0	preferred_right	3600.0	0.0		16.552414599980693	0.033292600011918694
0	11.004504500015173	stim	320		2	ambiguous_practice	ambiguous_practice	0.0	preferred_right	3600.0	0.0		16.585707199992612	0.03359409997938201
0	11.038098599994555	stim	321		2	ambiguous_practice	ambiguous_practice	0.0	preferred_right	3600.0	0.0		16.619301299971994	0.033393200021237135
0	11.071491800015792	stim	322		2	ambiguous_practice	ambiguous_practice	0.0	preferred_right	3600.0	0.0		16.65269449999323	0.03318399999989197
0	11.104675800015684	stim	323		2	ambiguous_practice	ambiguous_practice	0.0	preferred_right	3600.0	0.0		16.685878499993123	0.03344269999070093
0	11.138118500006385	stim	324		2	ambiguous_practice	ambiguous_practice	0.0	preferred_right	3600.0	0.0		16.719321199983824	0.033272999979089946
0	11.171391499985475	stim	325		2	ambiguous_practice	ambiguous_practice	0.0	preferred_right	3600.0	0.0		16.752594199962914	0.033524900034535676
0	11.20491640002001	stim	326		2	ambiguous_practice	ambiguous_practice	0.0	preferred_right	3600.0	0.0		16.78611909999745	0.03337639995152131
0	11.238292799971532	stim	327		2	ambiguous_practice	ambiguous_practice	0.0	preferred_right	3600.0	0.0		16.81949549994897	0.033283700002357364
0	11.27157649997389	stim	328		2	ambiguous_practice	ambiguous_practice	0.0	preferred_right	3600.0	0.0		16.85277919995133	0.03342700004577637
0	11.305003500019666	stim	329		2	ambiguous_practice	ambiguous_practice	0.0	preferred_right	3600.0	0.0		16.886206199997105	0.03329299995675683
0	11.338296499976423	stim	330		2	ambiguous_practice	ambiguous_practice	0.0	preferred_right	3600.0	0.0		16.91949919995386	0.033772199996747077
0	11.37206869997317	stim	331		2	ambiguous_practice	ambiguous_practice	0.0	preferred_right	3600.0	0.0		16.95327139995061	0.03299570002127439
0	11.405064399994444	stim	332		2	ambiguous_practice	ambiguous_practice	0.0	preferred_right	3600.0	0.0		16.986267099971883	0.03354370000306517
0	11.43860809999751	stim	333		2	ambiguous_practice	ambiguous_practice	0.0	preferred_right	3600.0	0.0		17.019810799974948	0.033250799984671175
0	11.47185889998218	stim	334		2	ambiguous_practice	ambiguous_practice	0.0	preferred_right	3600.0	0.0		17.05306159995962	0.03347570000914857
0	11.505334599991329	stim	335		2	ambiguous_practice	ambiguous_practice	0.0	preferred_right	3600.0	0.0		17.086537299968768	0.03346040000906214
0	11.538795000000391	stim	336		2	ambiguous_practice	ambiguous_practice	0.0	preferred_right	3600.0	0.0		17.11999769997783	0.03326240001479164
0	11.572057400015183	stim	337		2	ambiguous_practice	ambiguous_practice	0.0	preferred_right	3600.0	0.0		17.15326009999262	0.033533799985889345
0	11.605591200001072	stim	338		2	ambiguous_practice	ambiguous_practice	0.0	preferred_right	3600.0	0.0		17.18679389997851	0.033345600008033216
0	11.638936800009105	stim	339		2	ambiguous_practice	ambiguous_practice	0.0	preferred_right	3600.0	0.0		17.220139499986544	0.033335199987050146
0	11.672271999996156	stim	340		2	ambiguous_practice	ambiguous_practice	0.0	preferred_right	3600.0	0.0		17.253474699973594	0.03352430002996698
0	11.705796300026122	stim	341		2	ambiguous_practice	ambiguous_practice	0.0	preferred_right	3600.0	0.0		17.28699900000356	0.03308089997153729
0	11.73887719999766	stim	342		2	ambiguous_practice	ambiguous_practice	0.0	preferred_right	3600.0	0.0		17.3200798999751	0.033779699995648116
0	11.772656899993308	stim	343		2	ambiguous_practice	ambiguous_practice	0.0	preferred_right	3600.0	0.0		17.353859599970747	0.03324700001394376
0	11.805903900007252	stim	344		2	ambiguous_practice	ambiguous_practice	0.0	preferred_right	3600.0	0.0		17.38710659998469	0.03351049998309463
0	11.839414399990346	stim	345		2	ambiguous_practice	ambiguous_practice	0.0	preferred_right	3600.0	0.0		17.420617099967785	0.03339380002580583
0	11.872808200016152	stim	346		2	ambiguous_practice	ambiguous_practice	0.0	preferred_right	3600.0	0.0		17.45401089999359	0.03336469997884706
0	11.906172899995	stim	347		2	ambiguous_practice	ambiguous_practice	0.0	preferred_right	3600.0	0.0		17.487375599972438	0.03331379999872297
0	11.939486699993722	stim	348		2	ambiguous_practice	ambiguous_practice	0.0	preferred_right	3600.0	0.0		17.52068939997116	0.033336699998471886
0	11.972823399992194	stim	349		2	ambiguous_practice	ambiguous_practice	0.0	preferred_right	3600.0	0.0		17.554026099969633	0.033295300032477826
0	12.006118700024672	stim	350		2	ambiguous_practice	ambiguous_practice	0.0	preferred_right	3600.0	0.0		17.58732140000211	0.03339379996759817
0	12.03951249999227	stim	351		2	ambiguous_practice	ambiguous_practice	0.0	preferred_right	3600.0	0.0		17.62071519996971	0.033458299993071705
0	12.072970799985342	stim	352		2	ambiguous_practice	ambiguous_practice	0.0	preferred_right	3600.0	0.0		17.65417349996278	0.03331369999796152
0	12.106284499983303	stim	353		2	ambiguous_practice	ambiguous_practice	0.0	preferred_right	3600.0	0.0		17.687487199960742	0.03337900002952665
0	12.13966350001283	stim	354		2	ambiguous_practice	ambiguous_practice	0.0	preferred_right	3600.0	0.0		17.72086619999027	0.03337049996480346
0	12.173033999977633	stim	355		2	ambiguous_practice	ambiguous_practice	0.0	preferred_right	3600.0	0.0		17.754236699955072	0.03329270001268014
0	12.206326699990314	stim	356		2	ambiguous_practice	ambiguous_practice	0.0	preferred_right	3600.0	0.0		17.787529399967752	0.03345940000144765
0	12.239786099991761	stim	357		2	ambiguous_practice	ambiguous_practice	0.0	preferred_right	3600.0	0.0		17.8209887999692	0.033548699982929975
0	12.273334799974691	stim	358		2	ambiguous_practice	ambiguous_practice	0.0	preferred_right	3600.0	0.0		17.85453749995213	0.03333040000870824
0	12.3066651999834	stim	359		2	ambiguous_practice	ambiguous_practice	0.0	preferred_right	3600.0	0.0		17.88786789996084	0.03335990000050515
0	12.340025099983905	stim	360		2	ambiguous_practice	ambiguous_practice	0.0	preferred_right	3600.0	0.0		17.921227799961343	0.033326400036457926
0	12.373351500020362	stim	361		2	ambiguous_practice	ambiguous_practice	0.0	preferred_right	3600.0	0.0		17.9545541999978	0.03579689998878166
0	12.409148400009144	stim	362		2	ambiguous_practice	ambiguous_practice	0.0	preferred_right	3600.0	0.0		17.990351099986583	0.0310264999861829
0	12.440174899995327	stim	363		2	ambiguous_practice	ambiguous_practice	0.0	preferred_right	3600.0	0.0		18.021377599972766	0.03329350001877174
0	12.473468400014099	stim	364		2	ambiguous_practice	ambiguous_practice	0.0	preferred_right	3600.0	0.0		18.054671099991538	0.03557279997039586
0	12.509041199984495	stim	365		2	ambiguous_practice	ambiguous_practice	0.0	preferred_right	3600.0	0.0		18.090243899961933	0.03328140004305169
0	12.542322600027546	stim	366		2	ambiguous_practice	ambiguous_practice	0.0	preferred_right	3600.0	0.0		18.123525300004985	0.033280699979513884
0	12.57560330000706	stim	367		2	ambiguous_practice	ambiguous_practice	0.0	preferred_right	3600.0	0.0		18.1568059999845	0.031181099999230355
0	12.60678440000629	stim	368		2	ambiguous_practice	ambiguous_practice	0.0	preferred_right	3600.0	0.0		18.18798709998373	0.033776699972804636
0	12.640561099979095	stim	369		2	ambiguous_practice	ambiguous_practice	0.0	preferred_right	3600.0	0.0		18.221763799956534	0.03612350003095344
0	12.676684600010049	stim	370		2	ambiguous_practice	ambiguous_practice	0.0	preferred_right	3600.0	0.0		18.257887299987487	0.03328279999550432
0	12.709967400005553	stim	371		2	ambiguous_practice	ambiguous_practice	0.0	preferred_right	3600.0	0.0		18.291170099982992	0.0333661999902688
0	12.743333599995822	stim	372		2	ambiguous_practice	ambiguous_practice	0.0	preferred_right	3600.0	0.0		18.32453629997326	0.03299119998700917
0	12.77632479998283	stim	373		2	ambiguous_practice	ambiguous_practice	0.0	preferred_right	3600.0	0.0		18.35752749996027	0.033526500046718866
0	12.80985130002955	stim	374		2	ambiguous_practice	ambiguous_practice	0.0	preferred_right	3600.0	0.0		18.39105400000699	0.032969199994113296
0	12.842820500023663	stim	375		2	ambiguous_practice	ambiguous_practice	0.0	preferred_right	3600.0	0.0		18.424023200001102	0.03392299998085946
0	12.876743500004523	stim	376		2	ambiguous_practice	ambiguous_practice	0.0	preferred_right	3600.0	0.0		18.45794619998196	0.03308299998752773
0	12.90982649999205	stim	377		2	ambiguous_practice	ambiguous_practice	0.0	preferred_right	3600.0	0.0		18.49102919996949	0.03351570002269
0	12.94334220001474	stim	378		2	ambiguous_practice	ambiguous_practice	0.0	preferred_right	3600.0	0.0		18.52454489999218	0.03324710001470521
0	12.976589300029445	stim	379		2	ambiguous_practice	ambiguous_practice	0.0	preferred_right	3600.0	0.0		18.557792000006884	0.033407999959308654
0	13.009997299988754	stim	380		2	ambiguous_practice	ambiguous_practice	0.0	preferred_right	3600.0	0.0		18.591199999966193	0.03353810001863167
0	13.043535400007386	stim	381		2	ambiguous_practice	ambiguous_practice	0.0	preferred_right	3600.0	0.0		18.624738099984825	0.03309729997999966
0	13.076632699987385	stim	382		2	ambiguous_practice	ambiguous_practice	0.0	preferred_right	3600.0	0.0		18.657835399964824	0.03321339999092743
0	13.109846099978313	stim	383		2	ambiguous_practice	ambiguous_practice	0.0	preferred_right	3600.0	0.0		18.69104879995575	0.03331790002994239
0	13.143164000008255	stim	384		2	ambiguous_practice	ambiguous_practice	0.0	preferred_right	3600.0	0.0		18.724366699985694	0.03326499997638166
0	13.176428999984637	stim	385		2	ambiguous_practice	ambiguous_practice	0.0	preferred_right	3600.0	0.0		18.757631699962076	0.03360770002473146
0	13.210036700009368	stim	386		2	ambiguous_practice	ambiguous_practice	0.0	preferred_right	3600.0	0.0		18.791239399986807	0.033158999984152615
0	13.243195699993521	stim	387		2	ambiguous_practice	ambiguous_practice	0.0	preferred_right	3600.0	0.0		18.82439839997096	0.033233300026040524
0	13.276429000019561	stim	388		2	ambiguous_practice	ambiguous_practice	0.0	preferred_right	3600.0	0.0		18.857631699997	0.033402099972590804
0	13.309831099992152	stim	389		2	ambiguous_practice	ambiguous_practice	0.0	preferred_right	3600.0	0.0		18.89103379996959	0.03324279998196289
0	13.343073899974115	stim	390		2	ambiguous_practice	ambiguous_practice	0.0	preferred_right	3600.0	0.0		18.924276599951554	0.033196200034581125
0	13.376270100008696	stim	391		2	ambiguous_practice	ambiguous_practice	0.0	preferred_right	3600.0	0.0		18.957472799986135	0.0335899000056088
0	13.409860000014305	stim	392		2	ambiguous_practice	ambiguous_practice	0.0	preferred_right	3600.0	0.0		18.991062699991744	0.03329459996894002
0	13.443154599983245	stim	393		2	ambiguous_practice	ambiguous_practice	0.0	preferred_right	3600.0	0.0		19.024357299960684	0.033480599988251925
0	13.476635199971497	stim	394		2	ambiguous_practice	ambiguous_practice	0.0	preferred_right	3600.0	0.0		19.057837899948936	0.03353790001710877
0	13.510173099988606	stim	395		0	ambiguous_practice	ambiguous_practice	0.0	preferred_right	3600.0	0.0		19.091375799966045	1.4181518999976106
0	14.928324999986216	ambiguous_practice	395	n	2	ambiguous_practice	ambiguous_practice	0.0	preferred_right	3600.0	0.0	3.0195225999923423	20.509527699963655	-1.3682375999633223
0	13.560087400022894	stim	396		2	ambiguous_practice	ambiguous_practice	0.0	preferred_right	3600.0	0.0		19.141290100000333	0.033397399995010346
0	13.593484800017904	stim	397		2	ambiguous_practice	ambiguous_practice	0.0	preferred_right	3600.0	0.0		19.174687499995343	0.0331927000079304
0	13.626677500025835	stim	398		2	ambiguous_practice	ambiguous_practice	0.0	preferred_right	3600.0	0.0		19.207880200003274	0.03315269999438897
0	13.659830200020224	stim	399		2	ambiguous_practice	ambiguous_practice	0.0	preferred_right	3600.0	0.0		19.241032899997663	0.0332042999798432
0	13.693034500000067	stim	400		2	ambiguous_practice	ambiguous_practice	0.0	preferred_right	3600.0	0.0		19.274237199977506	0.03387819998897612
0	13.726912699989043	stim	401		2	ambiguous_practice	ambiguous_practice	0.0	preferred_right	3600.0	0.0		19.308115399966482	0.03302329999860376
0	13.759935999987647	stim	402		2	ambiguous_practice	ambiguous_practice	0.0	preferred_right	3600.0	0.0		19.341138699965086	0.032930699991993606
0	13.79286669997964	stim	403		2	ambiguous_practice	ambiguous_practice	0.0	preferred_right	3600.0	0.0		19.37406939995708	0.0338752000243403
0	13.82674190000398	stim	404		2	ambiguous_practice	ambiguous_practice	0.0	preferred_right	3600.0	0.0		19.40794459998142	0.03347000002395362
0	13.860211900027934	stim	405		2	ambiguous_practice	ambiguous_practice	0.0	preferred_right	3600.0	0.0		19.441414600005373	0.033507099957205355
0	13.89371899998514	stim	406		2	ambiguous_practice	ambiguous_practice	0.0	preferred_right	3600.0	0.0		19.47492169996258	0.03336150001268834
0	13.927080499997828	stim	407		2	ambiguous_practice	ambiguous_practice	0.0	preferred_right	3600.0	0.0		19.508283199975267	0.03315350000048056
0	13.960233999998309	stim	408		2	ambiguous_practice	ambiguous_practice	0.0	preferred_right	3600.0	0.0		19.541436699975748	0.0332916000043042
0	13.993525600002613	stim	409		2	ambiguous_practice	ambiguous_practice	0.0	preferred_right	3600.0	0.0		19.574728299980052	0.03332380001666024
0	14.026849400019273	stim	410		2	ambiguous_practice	ambiguous_practice	0.0	preferred_right	3600.0	0.0		19.608052099996712	0.0332036999752745
0	14.060053099994548	stim	411		2	ambiguous_practice	ambiguous_practice	0.0	preferred_right	3600.0	0.0		19.641255799971987	0.03372880001552403
0	14.093781900010072	stim	412		2	ambiguous_practice	ambiguous_practice	0.0	preferred_right	3600.0	0.0		19.67498459998751	0.033354700019117445
0	14.12713660002919	stim	413		2	ambiguous_practice	ambiguous_practice	0.0	preferred_right	3600.0	0.0		19.708339300006628	0.03333299997029826
0	14.160469599999487	stim	414		2	ambiguous_practice	ambiguous_practice	0.0	preferred_right	3600.0	0.0		19.741672299976926	0.03336840000702068
0	14.193838000006508	stim	415		2	ambiguous_practice	ambiguous_practice	0.0	preferred_right	3600.0	0.0		19.775040699983947	0.033289299986790866
0	14.227127299993299	stim	416		2	ambiguous_practice	ambiguous_practice	0.0	preferred_right	3600.0	0.0		19.808329999970738	0.03276740002911538
0	14.259894700022414	stim	417		2	ambiguous_practice	ambiguous_practice	0.0	preferred_right	3600.0	0.0		19.841097399999853	0.03337649995228276
0	14.293271199974697	stim	418		2	ambiguous_practice	ambiguous_practice	0.0	preferred_right	3600.0	0.0		19.874473899952136	0.03384540003025904
0	14.327116600004956	stim	419		2	ambiguous_practice	ambiguous_practice	0.0	preferred_right	3600.0	0.0		19.908319299982395	0.033766600012313575
0	14.36088320001727	stim	420		2	ambiguous_practice	ambiguous_practice	0.0	preferred_right	3600.0	0.0		19.94208589999471	0.033039100002497435
0	14.393922300019767	stim	421		2	ambiguous_practice	ambiguous_practice	0.0	preferred_right	3600.0	0.0		19.975124999997206	0.033592899970244616
0	14.427515199990012	stim	422		2	ambiguous_practice	ambiguous_practice	0.0	preferred_right	3600.0	0.0		20.00871789996745	0.033325000025797635
0	14.46084020001581	stim	423		2	ambiguous_practice	ambiguous_practice	0.0	preferred_right	3600.0	0.0		20.04204289999325	0.03336979995947331
0	14.494209999975283	stim	424		2	ambiguous_practice	ambiguous_practice	0.0	preferred_right	3600.0	0.0		20.07541269995272	0.033212500042282045
0	14.527422500017565	stim	425		2	ambiguous_practice	ambiguous_practice	0.0	preferred_right	3600.0	0.0		20.108625199995004	0.03352579998318106
0	14.560948300000746	stim	426		2	ambiguous_practice	ambiguous_practice	0.0	preferred_right	3600.0	0.0		20.142150999978185	0.03311499999836087
0	14.594063299999107	stim	427		2	ambiguous_practice	ambiguous_practice	0.0	preferred_right	3600.0	0.0		20.175265999976546	0.03352739999536425
0	14.627590699994471	stim	428		2	ambiguous_practice	ambiguous_practice	0.0	preferred_right	3600.0	0.0		20.20879339997191	0.03323669999372214
0	14.660827399988193	stim	429		2	ambiguous_practice	ambiguous_practice	0.0	preferred_right	3600.0	0.0		20.242030099965632	0.033331000013276935
0	14.69415840000147	stim	430		2	ambiguous_practice	ambiguous_practice	0.0	preferred_right	3600.0	0.0		20.27536109997891	0.03337600000668317
0	14.727534400008153	stim	431		2	ambiguous_practice	ambiguous_practice	0.0	preferred_right	3600.0	0.0		20.308737099985592	0.032799099979456514
0	14.76033349998761	stim	432		2	ambiguous_practice	ambiguous_practice	0.0	preferred_right	3600.0	0.0		20.34153619996505	0.033929600031115115
0	14.794263100018725	stim	433		2	ambiguous_practice	ambiguous_practice	0.0	preferred_right	3600.0	0.0		20.375465799996164	0.033264399971812963
0	14.827527499990538	stim	434		2	ambiguous_practice	ambiguous_practice	0.0	preferred_right	3600.0	0.0		20.408730199967977	0.03337650001049042
0	14.860904000001028	stim	435		2	ambiguous_practice	ambiguous_practice	0.0	preferred_right	3600.0	0.0		20.442106699978467	0.03340590000152588
0	14.894309900002554	stim	436		2	ambiguous_practice	ambiguous_practice	0.0	preferred_right	3600.0	0.0		20.475512599979993	0.0328946000081487
0	14.927204500010703	stim	437		2	ambiguous_practice	ambiguous_practice	0.0	preferred_right	3600.0	0.0		20.50840719998814	0.03354799997759983
0	14.960752499988303	stim	438		2	ambiguous_practice	ambiguous_practice	0.0	preferred_right	3600.0	0.0		20.54195519996574	0.03288270003395155
0	14.993635200022254	stim	439		2	ambiguous_practice	ambiguous_practice	0.0	preferred_right	3600.0	0.0		20.574837899999693	0.03330029995413497
0	15.026935499976389	stim	440		2	ambiguous_practice	ambiguous_practice	0.0	preferred_right	3600.0	0.0		20.608138199953828	0.03393930004676804
0	15.060874800023157	stim	441		2	ambiguous_practice	ambiguous_practice	0.0	preferred_right	3600.0	0.0		20.642077500000596	0.03373739996459335
0	15.09461219998775	stim	442		2	ambiguous_practice	ambiguous_practice	0.0	preferred_right	3600.0	0.0		20.67581489996519	0.033474500000011176
0	15.128086699987762	stim	443		2	ambiguous_practice	ambiguous_practice	0.0	preferred_right	3600.0	0.0		20.7092893999652	0.0332918000058271
0	15.161378499993589	stim	444		2	ambiguous_practice	ambiguous_practice	0.0	preferred_right	3600.0	0.0		20.742581199971028	0.033379899978172034
0	15.19475839997176	stim	445		2	ambiguous_practice	ambiguous_practice	0.0	preferred_right	3600.0	0.0		20.7759610999492	0.03319570003077388
0	15.227954100002535	stim	446		2	ambiguous_practice	ambiguous_practice	0.0	preferred_right	3600.0	0.0		20.809156799979974	0.03286630002548918
0	15.260820400028024	stim	447		2	ambiguous_practice	ambiguous_practice	0.0	preferred_right	3600.0	0.0		20.842023100005463	0.03346069995313883
0	15.294281099981163	stim	448		2	ambiguous_practice	ambiguous_practice	0.0	preferred_right	3600.0	0.0		20.8754837999586	0.033945800038054585
0	15.328226900019217	stim	449		2	ambiguous_practice	ambiguous_practice	0.0	preferred_right	3600.0	0.0		20.909429599996656	0.033191599999554455
0	15.361418500018772	stim	450		2	ambiguous_practice	ambiguous_practice	0.0	preferred_right	3600.0	0.0		20.94262119999621	0.03333439998095855
0	15.39475289999973	stim	451		2	ambiguous_practice	ambiguous_practice	0.0	preferred_right	3600.0	0.0		20.97595559997717	0.03306520002661273
0	15.427818100026343	stim	452		2	ambiguous_practice	ambiguous_practice	0.0	preferred_right	3600.0	0.0		21.009020800003782	0.03372889995807782
0	15.46154699998442	stim	453		2	ambiguous_practice	ambiguous_practice	0.0	preferred_right	3600.0	0.0		21.04274969996186	0.03328140004305169
0	15.494828400027473	stim	454		2	ambiguous_practice	ambiguous_practice	0.0	preferred_right	3600.0	0.0		21.07603110000491	0.03365050000138581
0	15.528478900028858	stim	455		2	ambiguous_practice	ambiguous_practice	0.0	preferred_right	3600.0	0.0		21.109681600006297	0.033578199974726886
0	15.562057100003585	stim	456		2	ambiguous_practice	ambiguous_practice	0.0	preferred_right	3600.0	0.0		21.143259799981024	0.033699899970088154
0	15.595756999973673	stim	457		2	ambiguous_practice	ambiguous_practice	0.0	preferred_right	3600.0	0.0		21.176959699951112	0.03339840000262484
0	15.629155399976298	stim	458		2	ambiguous_practice	ambiguous_practice	0.0	preferred_right	3600.0	0.0		21.210358099953737	0.03325200005201623
0	15.662407400028314	stim	459		2	ambiguous_practice	ambiguous_practice	0.0	preferred_right	3600.0	0.0		21.243610100005753	0.033179499965626746
0	15.695586899993941	stim	460		2	ambiguous_practice	ambiguous_practice	0.0	preferred_right	3600.0	0.0		21.27678959997138	0.03289929998572916
0	15.72848619997967	stim	461		2	ambiguous_practice	ambiguous_practice	0.0	preferred_right	3600.0	0.0		21.30968889995711	0.03359400003682822
0	15.762080200016499	stim	462		2	ambiguous_practice	ambiguous_practice	0.0	preferred_right	3600.0	0.0		21.343282899993937	0.03366529999766499
0	15.795745500014164	stim	463		2	ambiguous_practice	ambiguous_practice	0.0	preferred_right	3600.0	0.0		21.376948199991602	0.03326230001403019
0	15.829007800028194	stim	464		2	ambiguous_practice	ambiguous_practice	0.0	preferred_right	3600.0	0.0		21.410210500005633	0.03335399995557964
0	15.862361799983773	stim	465		2	ambiguous_practice	ambiguous_practice	0.0	preferred_right	3600.0	0.0		21.443564499961212	0.03320870001334697
0	15.89557049999712	stim	466		2	ambiguous_practice	ambiguous_practice	0.0	preferred_right	3600.0	0.0		21.47677319997456	0.03350660001160577
0	15.929077100008726	stim	467		2	ambiguous_practice	ambiguous_practice	0.0	preferred_right	3600.0	0.0		21.510279799986165	0.033372499980032444
0	15.962449599988759	stim	468		2	ambiguous_practice	ambiguous_practice	0.0	preferred_right	3600.0	0.0		21.543652299966197	0.03273149998858571
0	15.995181099977344	stim	469		2	ambiguous_practice	ambiguous_practice	0.0	preferred_right	3600.0	0.0		21.576383799954783	0.033622800023294985
0	16.02880390000064	stim	470		2	ambiguous_practice	ambiguous_practice	0.0	preferred_right	3600.0	0.0		21.610006599978078	0.03380129998549819
0	16.062605199986137	stim	471		2	ambiguous_practice	ambiguous_practice	0.0	preferred_right	3600.0	0.0		21.643807899963576	0.03328440000768751
0	16.095889599993825	stim	472		2	ambiguous_practice	ambiguous_practice	0.0	preferred_right	3600.0	0.0		21.677092299971264	0.033557599992491305
0	16.129447199986316	stim	473		2	ambiguous_practice	ambiguous_practice	0.0	preferred_right	3600.0	0.0		21.710649899963755	0.0334220000077039
0	16.16286919999402	stim	474		2	ambiguous_practice	ambiguous_practice	0.0	preferred_right	3600.0	0.0		21.74407189997146	0.033308900019619614
0	16.19617810001364	stim	475		2	ambiguous_practice	ambiguous_practice	0.0	preferred_right	3600.0	0.0		21.77738079999108	0.03338390000863001
0	16.22956200002227	stim	476		2	ambiguous_practice	ambiguous_practice	0.0	preferred_right	3600.0	0.0		21.81076469999971	0.032941199955530465
0	16.2625031999778	stim	477		2	ambiguous_practice	ambiguous_practice	0.0	preferred_right	3600.0	0.0		21.84370589995524	0.03346160001819953
0	16.295964799996	stim	478		2	ambiguous_practice	ambiguous_practice	0.0	preferred_right	3600.0	0.0		21.87716749997344	0.03366449999157339
0	16.329629299987573	stim	479		2	ambiguous_practice	ambiguous_practice	0.0	preferred_right	3600.0	0.0		21.910831999965012	0.033482099999673665
0	16.363111399987247	stim	480		2	ambiguous_practice	ambiguous_practice	0.0	preferred_right	3600.0	0.0		21.944314099964686	0.03325879998737946
0	16.396370199974626	stim	481		2	ambiguous_practice	ambiguous_practice	0.0	preferred_right	3600.0	0.0		21.977572899952065	0.033280600036960095
0	16.429650800011586	stim	482		2	ambiguous_practice	ambiguous_practice	0.0	preferred_right	3600.0	0.0		22.010853499989025	0.03313950001029298
0	16.46279030002188	stim	483		2	ambiguous_practice	ambiguous_practice	0.0	preferred_right	3600.0	0.0		22.04399299999932	0.03407100000185892
0	16.49686130002374	stim	484		2	ambiguous_practice	ambiguous_practice	0.0	preferred_right	3600.0	0.0		22.078064000001177	0.0496292999596335
0	16.546490599983372	stim	485		2	ambiguous_practice	ambiguous_practice	0.0	preferred_right	3600.0	0.0		22.12769329996081	0.033394500031135976
0	16.579885100014508	stim	486		2	ambiguous_practice	ambiguous_practice	0.0	preferred_right	3600.0	0.0		22.161087799991947	0.033424299967009574
0	16.613309399981517	stim	487		2	ambiguous_practice	ambiguous_practice	0.0	preferred_right	3600.0	0.0		22.194512099958956	0.033067500044126064
0	16.646376900025643	stim	488		2	ambiguous_practice	ambiguous_practice	0.0	preferred_right	3600.0	0.0		22.227579600003082	0.03383489995030686
0	16.68021179997595	stim	489		2	ambiguous_practice	ambiguous_practice	0.0	preferred_right	3600.0	0.0		22.26141449995339	0.033545900019817054
0	16.713757699995767	stim	490		2	ambiguous_practice	ambiguous_practice	0.0	preferred_right	3600.0	0.0		22.294960399973206	0.03296749998116866
0	16.746725199976936	stim	491		2	ambiguous_practice	ambiguous_practice	0.0	preferred_right	3600.0	0.0		22.327927899954375	0.03397440002299845
0	16.780699599999934	stim	492		2	ambiguous_practice	ambiguous_practice	0.0	preferred_right	3600.0	0.0		22.361902299977373	0.03323419997468591
0	16.81393379997462	stim	493		2	ambiguous_practice	ambiguous_practice	0.0	preferred_right	3600.0	0.0		22.39513649995206	0.033256700029596686
0	16.847190500004217	stim	494		2	ambiguous_practice	ambiguous_practice	0.0	preferred_right	3600.0	0.0		22.428393199981656	0.033414000004995614
0	16.880604500009213	stim	495		2	ambiguous_practice	ambiguous_practice	0.0	preferred_right	3600.0	0.0		22.46180719998665	0.033138099999632686
0	16.913742600008845	stim	496		2	ambiguous_practice	ambiguous_practice	0.0	preferred_right	3600.0	0.0		22.494945299986284	0.033680399996228516
0	16.947423000005074	stim	497		2	ambiguous_practice	ambiguous_practice	0.0	preferred_right	3600.0	0.0		22.528625699982513	0.03301289997762069
0	16.980435899982695	stim	498		2	ambiguous_practice	ambiguous_practice	0.0	preferred_right	3600.0	0.0		22.561638599960133	0.0330750000430271
0	17.01351090002572	stim	499		2	ambiguous_practice	ambiguous_practice	0.0	preferred_right	3600.0	0.0		22.59471360000316	0.033742799947503954
0	17.047253699973226	stim	500		2	ambiguous_practice	ambiguous_practice	0.0	preferred_right	3600.0	0.0		22.628456399950664	0.03348910005297512
0	17.0807428000262	stim	501		2	ambiguous_practice	ambiguous_practice	0.0	preferred_right	3600.0	0.0		22.66194550000364	0.03337319998536259
0	17.114116000011563	stim	502		2	ambiguous_practice	ambiguous_practice	0.0	preferred_right	3600.0	0.0		22.695318699989002	0.03295799996703863
0	17.147073999978602	stim	503		2	ambiguous_practice	ambiguous_practice	0.0	preferred_right	3600.0	0.0		22.72827669995604	0.03359270002692938
0	17.18066670000553	stim	504		2	ambiguous_practice	ambiguous_practice	0.0	preferred_right	3600.0	0.0		22.76186939998297	0.033433099975809455
0	17.21409979998134	stim	505		2	ambiguous_practice	ambiguous_practice	0.0	preferred_right	3600.0	0.0		22.79530249995878	0.0331500000320375
0	17.24724980001338	stim	506		2	ambiguous_practice	ambiguous_practice	0.0	preferred_right	3600.0	0.0		22.828452499990817	0.03302339999936521
0	17.280273200012743	stim	507		2	ambiguous_practice	ambiguous_practice	0.0	preferred_right	3600.0	0.0		22.861475899990182	0.03362110001035035
0	17.313894300023094	stim	508		2	ambiguous_practice	ambiguous_practice	0.0	preferred_right	3600.0	0.0		22.895097000000533	0.03360899997642264
0	17.347503299999516	stim	509		2	ambiguous_practice	ambiguous_practice	0.0	preferred_right	3600.0	0.0		22.928705999976955	0.033348699973430485
0	17.380851999972947	stim	510		2	ambiguous_practice	ambiguous_practice	0.0	preferred_right	3600.0	0.0		22.962054699950386	0.03326940000988543
0	17.414121399982832	stim	511		2	ambiguous_practice	ambiguous_practice	0.0	preferred_right	3600.0	0.0		22.99532409996027	0.033299600007012486
0	17.447420999989845	stim	512		2	ambiguous_practice	ambiguous_practice	0.0	preferred_right	3600.0	0.0		23.028623699967284	0.03340280003612861
0	17.480823800025973	stim	513		2	ambiguous_practice	ambiguous_practice	0.0	preferred_right	3600.0	0.0		23.062026500003412	0.03336689999559894
0	17.514190700021572	stim	514		2	ambiguous_practice	ambiguous_practice	0.0	preferred_right	3600.0	0.0		23.09539339999901	0.033564999990630895
0	17.547755700012203	stim	515		2	ambiguous_practice	ambiguous_practice	0.0	preferred_right	3600.0	0.0		23.128958399989642	0.03355270001338795
0	17.58130840002559	stim	516		2	ambiguous_practice	ambiguous_practice	0.0	preferred_right	3600.0	0.0		23.16251110000303	0.03324249997967854
0	17.61455090000527	stim	517		2	ambiguous_practice	ambiguous_practice	0.0	preferred_right	3600.0	0.0		23.19575359998271	0.0333544000168331
0	17.647905300022103	stim	518		2	ambiguous_practice	ambiguous_practice	0.0	preferred_right	3600.0	0.0		23.229107999999542	0.03325579996453598
0	17.68116109998664	stim	519		2	ambiguous_practice	ambiguous_practice	0.0	preferred_right	3600.0	0.0		23.262363799964078	0.03340990003198385
0	17.714571000018623	stim	520		2	ambiguous_practice	ambiguous_practice	0.0	preferred_right	3600.0	0.0		23.29577369999606	0.032787300006020814
0	17.747358300024644	stim	521		2	ambiguous_practice	ambiguous_practice	0.0	preferred_right	3600.0	0.0		23.328561000002082	0.034251099976245314
0	17.78160940000089	stim	522		2	ambiguous_practice	ambiguous_practice	0.0	preferred_right	3600.0	0.0		23.362812099978328	0.03339400002732873
0	17.815003400028218	stim	523		2	ambiguous_practice	ambiguous_practice	0.0	preferred_right	3600.0	0.0		23.396206100005656	0.033388499985449016
0	17.848391900013667	stim	524		2	ambiguous_practice	ambiguous_practice	0.0	preferred_right	3600.0	0.0		23.429594599991105	0.03339220001362264
0	17.88178410002729	stim	525		2	ambiguous_practice	ambiguous_practice	0.0	preferred_right	3600.0	0.0		23.462986800004728	0.033437399950344115
0	17.915221499977633	stim	526		2	ambiguous_practice	ambiguous_practice	0.0	preferred_right	3600.0	0.0		23.496424199955072	0.03326840000227094
0	17.948489899979904	stim	527		2	ambiguous_practice	ambiguous_practice	0.0	preferred_right	3600.0	0.0		23.529692599957343	0.03342170000541955
0	17.981911599985324	stim	528		2	ambiguous_practice	ambiguous_practice	0.0	preferred_right	3600.0	0.0		23.563114299962763	0.03303849999792874
0	18.014950099983253	stim	529		2	ambiguous_practice	ambiguous_practice	0.0	preferred_right	3600.0	0.0		23.59615279996069	0.03345039999112487
0	18.048400499974377	stim	530		2	ambiguous_practice	ambiguous_practice	0.0	preferred_right	3600.0	0.0		23.629603199951816	0.03308290004497394
0	18.08148340001935	stim	531		2	ambiguous_practice	ambiguous_practice	0.0	preferred_right	3600.0	0.0		23.66268609999679	0.033638899971265346
0	18.115122299990617	stim	532		2	ambiguous_practice	ambiguous_practice	0.0	preferred_right	3600.0	0.0		23.696324999968056	0.03350210003554821
0	18.148624400026165	stim	533		2	ambiguous_practice	ambiguous_practice	0.0	preferred_right	3600.0	0.0		23.729827100003604	0.03327399998670444
0	18.18189840001287	stim	534		2	ambiguous_practice	ambiguous_practice	0.0	preferred_right	3600.0	0.0		23.76310109999031	0.03328410000540316
0	18.215182500018273	stim	535		2	ambiguous_practice	ambiguous_practice	0.0	preferred_right	3600.0	0.0		23.79638519999571	0.0328637000056915
0	18.248046200023964	stim	536		2	ambiguous_practice	ambiguous_practice	0.0	preferred_right	3600.0	0.0		23.829248900001403	0.03369620000012219
0	18.281742400024086	stim	537		2	ambiguous_practice	ambiguous_practice	0.0	preferred_right	3600.0	0.0		23.862945100001525	0.033907099976204336
0	18.31564950000029	stim	538		2	ambiguous_practice	ambiguous_practice	0.0	preferred_right	3600.0	0.0		23.89685219997773	0.0330307999975048
0	18.348680299997795	stim	539		2	ambiguous_practice	ambiguous_practice	0.0	preferred_right	3600.0	0.0		23.929882999975234	0.03365559998201206
0	18.382335899979807	stim	540		2	ambiguous_practice	ambiguous_practice	0.0	preferred_right	3600.0	0.0		23.963538599957246	0.03341070003807545
0	18.415746600017883	stim	541		2	ambiguous_practice	ambiguous_practice	0.0	preferred_right	3600.0	0.0		23.996949299995322	0.03329469996970147
0	18.449041299987584	stim	542		2	ambiguous_practice	ambiguous_practice	0.0	preferred_right	3600.0	0.0		24.030243999965023	0.033698200015351176
0	18.482739500002936	stim	543		2	ambiguous_practice	ambiguous_practice	0.0	preferred_right	3600.0	0.0		24.063942199980374	0.0334401999716647
0	18.5161796999746	stim	544		2	ambiguous_practice	ambiguous_practice	0.0	preferred_right	3600.0	0.0		24.09738239995204	0.03340730001218617
0	18.549586999986786	stim	545		2	ambiguous_practice	ambiguous_practice	0.0	preferred_right	3600.0	0.0		24.130789699964225	0.03324120002798736
0	18.582828200014774	stim	546		2	ambiguous_practice	ambiguous_practice	0.0	preferred_right	3600.0	0.0		24.164030899992213	0.03342489997157827
0	18.616253099986352	stim	547		2	ambiguous_practice	ambiguous_practice	0.0	preferred_right	3600.0	0.0		24.19745579996379	0.033682200009934604
0	18.649935299996287	stim	548		2	ambiguous_practice	ambiguous_practice	0.0	preferred_right	3600.0	0.0		24.231137999973726	0.033336799999233335
0	18.68327209999552	stim	549		2	ambiguous_practice	ambiguous_practice	0.0	preferred_right	3600.0	0.0		24.26447479997296	0.03359950002050027
0	18.71687160001602	stim	550		2	ambiguous_practice	ambiguous_practice	0.0	preferred_right	3600.0	0.0		24.29807429999346	0.03290649998234585
0	18.749778099998366	stim	551		2	ambiguous_practice	ambiguous_practice	0.0	preferred_right	3600.0	0.0		24.330980799975805	0.033810799999628216
0	18.783588899997994	stim	552		2	ambiguous_practice	ambiguous_practice	0.0	preferred_right	3600.0	0.0		24.364791599975433	0.03373460000148043
0	18.817323499999475	stim	553		2	ambiguous_practice	ambiguous_practice	0.0	preferred_right	3600.0	0.0		24.398526199976914	0.03327060001902282
0	18.850594100018498	stim	554		2	ambiguous_practice	ambiguous_practice	0.0	preferred_right	3600.0	0.0		24.431796799995936	0.033446499961428344
0	18.884040599979926	stim	555		2	ambiguous_practice	ambiguous_practice	0.0	preferred_right	3600.0	0.0		24.465243299957365	0.03340830001980066
0	18.917448899999727	stim	556		2	ambiguous_practice	ambiguous_practice	0.0	preferred_right	3600.0	0.0		24.498651599977165	0.03324419999262318
0	18.95069309999235	stim	557		2	ambiguous_practice	ambiguous_practice	0.0	preferred_right	3600.0	0.0		24.53189579996979	0.03287669998826459
0	18.983569799980614	stim	558		2	ambiguous_practice	ambiguous_practice	0.0	preferred_right	3600.0	0.0		24.564772499958053	0.03333430003840476
0	19.01690410001902	stim	559		2	ambiguous_practice	ambiguous_practice	0.0	preferred_right	3600.0	0.0		24.598106799996458	0.033554599969647825
0	19.050458699988667	stim	560		2	ambiguous_practice	ambiguous_practice	0.0	preferred_right	3600.0	0.0		24.631661399966106	0.033329500001855195
0	19.083788199990522	stim	561		2	ambiguous_practice	ambiguous_practice	0.0	preferred_right	3600.0	0.0		24.66499089996796	0.03364239999791607
0	19.117430599988438	stim	562		2	ambiguous_practice	ambiguous_practice	0.0	preferred_right	3600.0	0.0		24.698633299965877	0.033348900033161044
0	19.1507795000216	stim	563		2	ambiguous_practice	ambiguous_practice	0.0	preferred_right	3600.0	0.0		24.731982199999038	0.0333719999762252
0	19.184151499997824	stim	564		2	ambiguous_practice	ambiguous_practice	0.0	preferred_right	3600.0	0.0		24.765354199975263	0.03388890001224354
0	19.218040400010068	stim	565		2	ambiguous_practice	ambiguous_practice	0.0	preferred_right	3600.0	0.0		24.799243099987507	0.032752999977674335
0	19.250793399987742	stim	566		2	ambiguous_practice	ambiguous_practice	0.0	preferred_right	3600.0	0.0		24.83199609996518	0.03389640001114458
0	19.284689799998887	stim	567		2	ambiguous_practice	ambiguous_practice	0.0	preferred_right	3600.0	0.0		24.865892499976326	0.03355559997726232
0	19.31824539997615	stim	568		2	ambiguous_practice	ambiguous_practice	0.0	preferred_right	3600.0	0.0		24.899448099953588	0.03300120000494644
0	19.351246599981096	stim	569		2	ambiguous_practice	ambiguous_practice	0.0	preferred_right	3600.0	0.0		24.932449299958535	0.03367269999580458
0	19.3849192999769	stim	570		2	ambiguous_practice	ambiguous_practice	0.0	preferred_right	3600.0	0.0		24.96612199995434	0.03345129999797791
0	19.418370599974878	stim	571		2	ambiguous_practice	ambiguous_practice	0.0	preferred_right	3600.0	0.0		24.999573299952317	0.03356740000890568
0	19.451937999983784	stim	572		2	ambiguous_practice	ambiguous_practice	0.0	preferred_right	3600.0	0.0		25.033140699961223	0.03360309998970479
0	19.48554109997349	stim	573		2	ambiguous_practice	ambiguous_practice	0.0	preferred_right	3600.0	0.0		25.066743799950927	0.03322760004084557
0	19.518768700014334	stim	574		2	ambiguous_practice	ambiguous_practice	0.0	preferred_right	3600.0	0.0		25.099971399991773	0.033520500001031905
0	19.552289200015366	stim	575		2	ambiguous_practice	ambiguous_practice	0.0	preferred_right	3600.0	0.0		25.133491899992805	0.034218299959320575
0	19.586507499974687	stim	576		2	ambiguous_practice	ambiguous_practice	0.0	preferred_right	3600.0	0.0		25.167710199952126	0.03322189999744296
0	19.61972939997213	stim	577		2	ambiguous_practice	ambiguous_practice	0.0	preferred_right	3600.0	0.0		25.20093209994957	0.03341200004797429
0	19.653141400020104	stim	578		2	ambiguous_practice	ambiguous_practice	0.0	preferred_right	3600.0	0.0		25.234344099997543	0.0332600999972783
0	19.686401500017382	stim	579		2	ambiguous_practice	ambiguous_practice	0.0	preferred_right	3600.0	0.0		25.26760419999482	0.03316409996477887
0	19.71956559998216	stim	580		2	ambiguous_practice	ambiguous_practice	0.0	preferred_right	3600.0	0.0		25.3007682999596	0.03319510002620518
0	19.752760700008366	stim	581		2	ambiguous_practice	ambiguous_practice	0.0	preferred_right	3600.0	0.0		25.333963399985805	0.03358829999342561
0	19.786349000001792	stim	582		2	ambiguous_practice	ambiguous_practice	0.0	preferred_right	3600.0	0.0		25.36755169997923	0.033424500026740134
0	19.819773500028532	stim	583		2	ambiguous_practice	ambiguous_practice	0.0	preferred_right	3600.0	0.0		25.40097620000597	0.0332044999813661
0	19.852978000009898	stim	584		2	ambiguous_practice	ambiguous_practice	0.0	preferred_right	3600.0	0.0		25.434180699987337	0.03347419999772683
0	19.886452200007625	stim	585		2	ambiguous_practice	ambiguous_practice	0.0	preferred_right	3600.0	0.0		25.467654899985064	0.03315219999058172
0	19.919604399998207	stim	586		2	ambiguous_practice	ambiguous_practice	0.0	preferred_right	3600.0	0.0		25.500807099975646	0.03344829997513443
0	19.95305269997334	stim	587		2	ambiguous_practice	ambiguous_practice	0.0	preferred_right	3600.0	0.0		25.53425539995078	0.032889600028283894
0	19.985942300001625	stim	588		2	ambiguous_practice	ambiguous_practice	0.0	preferred_right	3600.0	0.0		25.567144999979064	0.03331229998730123
0	20.019254599988926	stim	589		2	ambiguous_practice	ambiguous_practice	0.0	preferred_right	3600.0	0.0		25.600457299966365	0.033857000002171844
0	20.053111599991098	stim	590		2	ambiguous_practice	ambiguous_practice	0.0	preferred_right	3600.0	0.0		25.634314299968537	0.03311519999988377
0	20.086226799990982	stim	591		2	ambiguous_practice	ambiguous_practice	0.0	preferred_right	3600.0	0.0		25.66742949996842	0.0335266999900341
0	20.119753499981016	stim	592		2	ambiguous_practice	ambiguous_practice	0.0	preferred_right	3600.0	0.0		25.700956199958455	0.03335410001454875
0	20.153107599995565	stim	593		2	ambiguous_practice	ambiguous_practice	0.0	preferred_right	3600.0	0.0		25.734310299973004	0.0336636999854818
0	20.186771299981046	stim	594		2	ambiguous_practice	ambiguous_practice	0.0	preferred_right	3600.0	0.0		25.767973999958485	0.03331540001090616
0	20.220086699991953	stim	595		2	ambiguous_practice	ambiguous_practice	0.0	preferred_right	3600.0	0.0		25.80128939996939	0.03290789999300614
0	20.25299459998496	stim	596		2	ambiguous_practice	ambiguous_practice	0.0	preferred_right	3600.0	0.0		25.834197299962398	0.034021300030872226
0	20.28701590001583	stim	597		2	ambiguous_practice	ambiguous_practice	0.0	preferred_right	3600.0	0.0		25.86821859999327	0.033598899957723916
0	20.320614799973555	stim	598		2	ambiguous_practice	ambiguous_practice	0.0	preferred_right	3600.0	0.0		25.901817499950994	0.03336450003553182
0	20.353979300009087	stim	599		2	ambiguous_practice	ambiguous_practice	0.0	preferred_right	3600.0	0.0		25.935181999986526	0.033490900008473545
0	20.38747020001756	stim	600		2	ambiguous_practice	ambiguous_practice	0.0	preferred_right	3600.0	0.0		25.968672899995	0.033375200000591576
0	20.420845400018152	stim	601		2	ambiguous_practice	ambiguous_practice	0.0	preferred_right	3600.0	0.0		26.00204809999559	0.03365779999876395
0	20.454503200016916	stim	602		2	ambiguous_practice	ambiguous_practice	0.0	preferred_right	3600.0	0.0		26.035705899994355	0.03337709995685145
0	20.487880299973767	stim	603		2	ambiguous_practice	ambiguous_practice	0.0	preferred_right	3600.0	0.0		26.069082999951206	0.03325760003644973
0	20.521137900010217	stim	604		2	ambiguous_practice	ambiguous_practice	0.0	preferred_right	3600.0	0.0		26.102340599987656	0.033321900002192706
0	20.55445980001241	stim	605		2	ambiguous_practice	ambiguous_practice	0.0	preferred_right	3600.0	0.0		26.13566249998985	0.03338939999230206
0	20.58784920000471	stim	606		2	ambiguous_practice	ambiguous_practice	0.0	preferred_right	3600.0	0.0		26.16905189998215	0.03331199998501688
0	20.62116119998973	stim	607		2	ambiguous_practice	ambiguous_practice	0.0	preferred_right	3600.0	0.0		26.202363899967168	0.03346539998892695
0	20.654626599978656	stim	608		2	ambiguous_practice	ambiguous_practice	0.0	preferred_right	3600.0	0.0		26.235829299956094	0.03331540001090616
0	20.68794199998956	stim	609		2	ambiguous_practice	ambiguous_practice	0.0	preferred_right	3600.0	0.0		26.269144699967	0.03324429999338463
0	20.721186299982946	stim	610		2	ambiguous_practice	ambiguous_practice	0.0	preferred_right	3600.0	0.0		26.302388999960385	0.03336679999483749
0	20.754553099977784	stim	611		2	ambiguous_practice	ambiguous_practice	0.0	preferred_right	3600.0	0.0		26.335755799955223	0.03358770004706457
0	20.78814080002485	stim	612		2	ambiguous_practice	ambiguous_practice	0.0	preferred_right	3600.0	0.0		26.369343500002287	0.03311839996604249
0	20.82125919999089	stim	613		2	ambiguous_practice	ambiguous_practice	0.0	preferred_right	3600.0	0.0		26.40246189996833	0.0334224000107497
0	20.85468160000164	stim	614		2	ambiguous_practice	ambiguous_practice	0.0	preferred_right	3600.0	0.0		26.43588429997908	0.033634699997492135
0	20.888316299999133	stim	615		2	ambiguous_practice	ambiguous_practice	0.0	preferred_right	3600.0	0.0		26.46951899997657	0.03318550001131371
0	20.921501800010446	stim	616		2	ambiguous_practice	ambiguous_practice	0.0	preferred_right	3600.0	0.0		26.502704499987885	0.033369300013873726
0	20.95487110002432	stim	617		2	ambiguous_practice	ambiguous_practice	0.0	preferred_right	3600.0	0.0		26.53607380000176	0.033797499956563115
0	20.988668599980883	stim	618		2	ambiguous_practice	ambiguous_practice	0.0	preferred_right	3600.0	0.0		26.569871299958322	0.033238900010474026
0	21.021907499991357	stim	619		2	ambiguous_practice	ambiguous_practice	0.0	preferred_right	3600.0	0.0		26.603110199968796	0.033481999998912215
0	21.05538949999027	stim	620		2	ambiguous_practice	ambiguous_practice	0.0	preferred_right	3600.0	0.0		26.63659219996771	0.03327280003577471
0	21.088662300026044	stim	621		2	ambiguous_practice	ambiguous_practice	0.0	preferred_right	3600.0	0.0		26.669865000003483	0.03358759998809546
0	21.12224990001414	stim	622		2	ambiguous_practice	ambiguous_practice	0.0	preferred_right	3600.0	0.0		26.70345259999158	0.03304119996028021
0	21.15529109997442	stim	623		2	ambiguous_practice	ambiguous_practice	0.0	preferred_right	3600.0	0.0		26.73649379995186	0.03336610004771501
0	21.188657200022135	stim	624		2	ambiguous_practice	ambiguous_practice	0.0	preferred_right	3600.0	0.0		26.769859899999574	0.033339599962346256
0	21.22199679998448	stim	625		2	ambiguous_practice	ambiguous_practice	0.0	preferred_right	3600.0	0.0		26.80319949996192	0.03337630000896752
0	21.25537309999345	stim	626		2	ambiguous_practice	ambiguous_practice	0.0	preferred_right	3600.0	0.0		26.836575799970888	0.033383000001776963
0	21.288756099995226	stim	627		2	ambiguous_practice	ambiguous_practice	0.0	preferred_right	3600.0	0.0		26.869958799972665	0.03410380001878366
0	21.32285990001401	stim	628		2	ambiguous_practice	ambiguous_practice	0.0	preferred_right	3600.0	0.0		26.904062599991448	0.03336910001235083
0	21.35622900002636	stim	629		2	ambiguous_practice	ambiguous_practice	0.0	preferred_right	3600.0	0.0		26.9374317000038	0.03334379999432713
0	21.389572800020687	stim	630		2	ambiguous_practice	ambiguous_practice	0.0	preferred_right	3600.0	0.0		26.970775499998126	0.03337289998307824
0	21.422945700003766	stim	631		2	ambiguous_practice	ambiguous_practice	0.0	preferred_right	3600.0	0.0		27.004148399981204	0.03328689996851608
0	21.45623259997228	stim	632		2	ambiguous_practice	ambiguous_practice	0.0	preferred_right	3600.0	0.0		27.03743529994972	0.03645510005299002
0	21.49268770002527	stim	633		2	ambiguous_practice	ambiguous_practice	0.0	preferred_right	3600.0	0.0		27.07389040000271	0.03306629997678101
0	21.525754000002053	stim	634		2	ambiguous_practice	ambiguous_practice	0.0	preferred_right	3600.0	0.0		27.10695669997949	0.03346100001363084
0	21.559215000015683	stim	635		2	ambiguous_practice	ambiguous_practice	0.0	preferred_right	3600.0	0.0		27.140417699993122	0.03377449995605275
0	21.592989499971736	stim	636		2	ambiguous_practice	ambiguous_practice	0.0	preferred_right	3600.0	0.0		27.174192199949175	0.03333270002622157
0	21.626322199997958	stim	637		2	ambiguous_practice	ambiguous_practice	0.0	preferred_right	3600.0	0.0		27.207524899975397	0.03353800001787022
0	21.659860200015828	stim	638		2	ambiguous_practice	ambiguous_practice	0.0	preferred_right	3600.0	0.0		27.241062899993267	0.033162100007757545
0	21.693022300023586	stim	639		2	ambiguous_practice	ambiguous_practice	0.0	preferred_right	3600.0	0.0		27.274225000001024	0.03250739997019991
0	21.725529699993785	stim	640		2	ambiguous_practice	ambiguous_practice	0.0	preferred_right	3600.0	0.0		27.306732399971224	0.033910099999047816
0	21.759439799992833	stim	641		2	ambiguous_practice	ambiguous_practice	0.0	preferred_right	3600.0	0.0		27.340642499970272	0.033270300016738474
0	21.79271010000957	stim	642		2	ambiguous_practice	ambiguous_practice	0.0	preferred_right	3600.0	0.0		27.37391279998701	0.033658300002571195
0	21.826368400012143	stim	643		2	ambiguous_practice	ambiguous_practice	0.0	preferred_right	3600.0	0.0		27.407571099989582	0.03309909999370575
0	21.85946750000585	stim	644		2	ambiguous_practice	ambiguous_practice	0.0	preferred_right	3600.0	0.0		27.440670199983288	0.033452200004830956
0	21.89291970001068	stim	645		2	ambiguous_practice	ambiguous_practice	0.0	preferred_right	3600.0	0.0		27.47412239998812	0.03351559996372089
0	21.9264352999744	stim	646		2	ambiguous_practice	ambiguous_practice	0.0	preferred_right	3600.0	0.0		27.50763799995184	0.03316310001537204
0	21.959598399989773	stim	647		2	ambiguous_practice	ambiguous_practice	0.0	preferred_right	3600.0	0.0		27.54080109996721	0.033378500025719404
0	21.992976900015492	stim	648		2	ambiguous_practice	ambiguous_practice	0.0	preferred_right	3600.0	0.0		27.57417959999293	0.03328569995937869
0	22.02626259997487	stim	649		2	ambiguous_practice	ambiguous_practice	0.0	preferred_right	3600.0	0.0		27.60746529995231	0.03328980004880577
0	22.059552400023676	stim	650		2	ambiguous_practice	ambiguous_practice	0.0	preferred_right	3600.0	0.0		27.640755100001115	0.03325159999076277
0	22.09280400001444	stim	651		2	ambiguous_practice	ambiguous_practice	0.0	preferred_right	3600.0	0.0		27.674006699991878	0.033193300012499094
0	22.12599730002694	stim	652		2	ambiguous_practice	ambiguous_practice	0.0	preferred_right	3600.0	0.0		27.707200000004377	0.03353499999502674
0	22.159532300021965	stim	653		2	ambiguous_practice	ambiguous_practice	0.0	preferred_right	3600.0	0.0		27.740734999999404	0.033591499959584326
0	22.19312379998155	stim	654		2	ambiguous_practice	ambiguous_practice	0.0	preferred_right	3600.0	0.0		27.77432649995899	0.03321930003585294
0	22.226343100017402	stim	655		2	ambiguous_practice	ambiguous_practice	0.0	preferred_right	3600.0	0.0		27.80754579999484	0.03338889998849481
0	22.259732000005897	stim	656		2	ambiguous_practice	ambiguous_practice	0.0	preferred_right	3600.0	0.0		27.840934699983336	0.033622800023294985
0	22.293354800029192	stim	657		2	ambiguous_practice	ambiguous_practice	0.0	preferred_right	3600.0	0.0		27.87455750000663	0.033830299973487854
0	22.32718510000268	stim	658		2	ambiguous_practice	ambiguous_practice	0.0	preferred_right	3600.0	0.0		27.90838779998012	0.03332280000904575
0	22.360507900011726	stim	659		2	ambiguous_practice	ambiguous_practice	0.0	preferred_right	3600.0	0.0		27.941710599989165	0.03344259998993948
0	22.393950500001665	stim	660		2	ambiguous_practice	ambiguous_practice	0.0	preferred_right	3600.0	0.0		27.975153199979104	0.03328139998484403
0	22.42723189998651	stim	661		2	ambiguous_practice	ambiguous_practice	0.0	preferred_right	3600.0	0.0		28.008434599963948	0.03327140002511442
0	22.460503300011624	stim	662		2	ambiguous_practice	ambiguous_practice	0.0	preferred_right	3600.0	0.0		28.041705999989063	0.03333459998248145
0	22.493837899994105	stim	663		2	ambiguous_practice	ambiguous_practice	0.0	preferred_right	3600.0	0.0		28.075040599971544	0.033825699996668845
0	22.527663599990774	stim	664		2	ambiguous_practice	ambiguous_practice	0.0	preferred_right	3600.0	0.0		28.108866299968213	0.0334533000132069
0	22.56111690000398	stim	665		2	ambiguous_practice	ambiguous_practice	0.0	preferred_right	3600.0	0.0		28.14231959998142	0.03359110001474619
0	22.594708000018727	stim	666		2	ambiguous_practice	ambiguous_practice	0.0	preferred_right	3600.0	0.0		28.175910699996166	0.033438899961765856
0	22.628146899980493	stim	667		2	ambiguous_practice	ambiguous_practice	0.0	preferred_right	3600.0	0.0		28.209349599957932	0.03327390004415065
0	22.661420800024644	stim	668		2	ambiguous_practice	ambiguous_practice	0.0	preferred_right	3600.0	0.0		28.242623500002082	0.03340819996083155
0	22.694828999985475	stim	669		2	ambiguous_practice	ambiguous_practice	0.0	preferred_right	3600.0	0.0		28.276031699962914	0.03333360003307462
0	22.72816260001855	stim	670		2	ambiguous_practice	ambiguous_practice	0.0	preferred_right	3600.0	0.0		28.30936529999599	0.03302329999860376
0	22.761185900017153	stim	671		2	ambiguous_practice	ambiguous_practice	0.0	preferred_right	3600.0	0.0		28.342388599994592	0.03356829995755106
0	22.794754199974705	stim	672		2	ambiguous_practice	ambiguous_practice	0.0	preferred_right	3600.0	0.0		28.375956899952143	0.03354340000078082
0	22.828297599975485	stim	673		2	ambiguous_practice	ambiguous_practice	0.0	preferred_right	3600.0	0.0		28.409500299952924	0.03352440003072843
0	22.861822000006214	stim	674		2	ambiguous_practice	ambiguous_practice	0.0	preferred_right	3600.0	0.0		28.443024699983653	0.03288770001381636
0	22.89470970002003	stim	675		2	ambiguous_practice	ambiguous_practice	0.0	preferred_right	3600.0	0.0		28.47591239999747	0.03387079999083653
0	22.928580500010867	stim	676		2	ambiguous_practice	ambiguous_practice	0.0	preferred_right	3600.0	0.0		28.509783199988306	0.033344199997372925
0	22.96192470000824	stim	677		2	ambiguous_practice	ambiguous_practice	0.0	preferred_right	3600.0	0.0		28.54312739998568	0.03336830000625923
0	22.9952930000145	stim	678		2	ambiguous_practice	ambiguous_practice	0.0	preferred_right	3600.0	0.0		28.576495699991938	0.03358669998124242
0	23.02887969999574	stim	679		2	ambiguous_practice	ambiguous_practice	0.0	preferred_right	3600.0	0.0		28.61008239997318	0.033353000006172806
0	23.062232700001914	stim	680		2	ambiguous_practice	ambiguous_practice	0.0	preferred_right	3600.0	0.0		28.643435399979353	0.03335230000084266
0	23.095585000002757	stim	681		2	ambiguous_practice	ambiguous_practice	0.0	preferred_right	3600.0	0.0		28.676787699980196	0.03345599997555837
0	23.129040999978315	stim	682		2	ambiguous_practice	ambiguous_practice	0.0	preferred_right	3600.0	0.0		28.710243699955754	0.03333950001979247
0	23.162380499998108	stim	683		2	ambiguous_practice	ambiguous_practice	0.0	preferred_right	3600.0	0.0		28.743583199975546	0.032762099988758564
0	23.195142599986866	stim	684		2	ambiguous_practice	ambiguous_practice	0.0	preferred_right	3600.0	0.0		28.776345299964305	0.03345899999840185
0	23.228601599985268	stim	685		2	ambiguous_practice	ambiguous_practice	0.0	preferred_right	3600.0	0.0		28.809804299962707	0.033645100018475205
0	23.262246700003743	stim	686		2	ambiguous_practice	ambiguous_practice	0.0	preferred_right	3600.0	0.0		28.843449399981182	0.03338039998197928
0	23.295627099985722	stim	687		2	ambiguous_practice	ambiguous_practice	0.0	preferred_right	3600.0	0.0		28.87682979996316	0.033345600008033216
0	23.328972699993756	stim	688		2	ambiguous_practice	ambiguous_practice	0.0	preferred_right	3600.0	0.0		28.910175399971195	0.033080600027460605
0	23.362053300021216	stim	689		2	ambiguous_practice	ambiguous_practice	0.0	preferred_right	3600.0	0.0		28.943255999998655	0.03358809999190271
0	23.39564140001312	stim	690		2	ambiguous_practice	ambiguous_practice	0.0	preferred_right	3600.0	0.0		28.976844099990558	0.033298099995590746
0	23.42893950000871	stim	691		2	ambiguous_practice	ambiguous_practice	0.0	preferred_right	3600.0	0.0		29.01014219998615	0.033104199974332005
0	23.46204369998304	stim	692		2	ambiguous_practice	ambiguous_practice	0.0	preferred_right	3600.0	0.0		29.04324639996048	0.03418920002877712
0	23.49623290001182	stim	693		2	ambiguous_practice	ambiguous_practice	0.0	preferred_right	3600.0	0.0		29.077435599989258	0.03324839996639639
0	23.529481299978215	stim	694		2	ambiguous_practice	ambiguous_practice	0.0	preferred_right	3600.0	0.0		29.110683999955654	0.03340410004602745
0	23.562885400024243	stim	695		2	ambiguous_practice	ambiguous_practice	0.0	preferred_right	3600.0	0.0		29.14408810000168	0.033281799987889826
0	23.596167200012133	stim	696		2	ambiguous_practice	ambiguous_practice	0.0	preferred_right	3600.0	0.0		29.17736989998957	0.033452400006353855
0	23.629619600018486	stim	697		2	ambiguous_practice	ambiguous_practice	0.0	preferred_right	3600.0	0.0		29.210822299995925	0.03373470000224188
0	23.66335430002073	stim	698		2	ambiguous_practice	ambiguous_practice	0.0	preferred_right	3600.0	0.0		29.244556999998167	0.032844699977431446
0	23.69619899999816	stim	699		2	ambiguous_practice	ambiguous_practice	0.0	preferred_right	3600.0	0.0		29.2774016999756	0.03336719999788329
0	23.729566199996043	stim	700		2	ambiguous_practice	ambiguous_practice	0.0	preferred_right	3600.0	0.0		29.310768899973482	0.03409319999627769
0	23.76365939999232	stim	701		2	ambiguous_practice	ambiguous_practice	0.0	preferred_right	3600.0	0.0		29.34486209996976	0.03314950002823025
