trial_nr	onset	event_type	phase	response	nr_frames	block_type	trial_type	response_hand	phase_length	last_frame	key_duration	onset_abs	duration
0	0.018053999985568225	stim	0		0	break	break	preferred	1.0	0.0		4.882825799984857	2.7820353000424802
0	2.8000893000280485	break	0	space	0	break	break	preferred	1.0	0.0	0.0738856999669224	7.664861100027338	0.9145221000071615
0	3.71461140003521	break	0	space	599	break	break	preferred	1.0	0.0	0.10305829998105764	8.5793832000345	6.346180199994706
1	10.060791600029916	stim	0		2	unambiguous	right	preferred	70.0	0.0		14.925563400029205	0.03391989995725453
1	10.09471149998717	stim	1		2	unambiguous	right	preferred	70.0	0.0		14.95948329998646	0.03264870005659759
1	10.127360200043768	stim	2		2	unambiguous	right	preferred	70.0	0.0		14.992132000043057	0.03329619998112321
1	10.160656400024891	stim	3		2	unambiguous	right	preferred	70.0	0.0		15.02542820002418	0.033532400033436716
1	10.194188800058328	stim	4		2	unambiguous	right	preferred	70.0	0.0		15.058960600057617	0.03333589993417263
1	10.2275246999925	stim	5		2	unambiguous	right	preferred	70.0	0.0		15.09229649999179	0.03367560007609427
1	10.261200300068595	stim	6		2	unambiguous	right	preferred	70.0	0.0		15.125972100067884	0.03428909997455776
1	10.295489400043152	stim	7		2	unambiguous	right	preferred	70.0	0.0		15.160261200042441	0.03296540002338588
1	10.328454800066538	stim	8		2	unambiguous	right	preferred	70.0	0.0		15.193226600065827	0.03345039999112487
1	10.361905200057663	stim	9		2	unambiguous	right	preferred	70.0	0.0		15.226677000056952	0.033974200021475554
1	10.395879400079139	stim	10		2	unambiguous	right	preferred	70.0	0.0		15.260651200078428	0.049757199943996966
1	10.445636600023136	stim	11		2	unambiguous	right	preferred	70.0	0.0		15.310408400022425	0.034236200037412345
1	10.479872800060548	stim	12		2	unambiguous	right	preferred	70.0	0.0		15.344644600059837	0.03296539990697056
1	10.512838199967518	stim	13		2	unambiguous	right	preferred	70.0	0.0		15.377609999966808	0.03344620007555932
1	10.546284400043078	stim	14		2	unambiguous	right	preferred	70.0	0.0		15.411056200042367	0.03332439996302128
1	10.579608800006099	stim	15		2	unambiguous	right	preferred	70.0	0.0		15.444380600005388	0.03329940000548959
1	10.612908200011589	stim	16		2	unambiguous	right	preferred	70.0	0.0		15.477680000010878	0.033293999964371324
1	10.64620219997596	stim	17		2	unambiguous	right	preferred	70.0	0.0		15.51097399997525	0.03414330002851784
1	10.680345500004478	stim	18		2	unambiguous	right	preferred	70.0	0.0		15.545117300003767	0.03364150004927069
1	10.713987000053748	stim	19		2	unambiguous	right	preferred	70.0	0.0		15.578758800053038	0.03336110000964254
1	10.747348100063391	stim	20		2	unambiguous	right	preferred	70.0	0.0		15.61211990006268	0.03335379995405674
1	10.780701900017448	stim	21		2	unambiguous	right	preferred	70.0	0.0		15.645473700016737	0.03329579997807741
1	10.813997699995525	stim	22		2	unambiguous	right	preferred	70.0	0.0		15.678769499994814	0.033123800065368414
1	10.847121500060894	stim	23		2	unambiguous	right	preferred	70.0	0.0		15.711893300060183	0.03410009993240237
1	10.881221599993296	stim	24		2	unambiguous	right	preferred	70.0	0.0		15.745993399992585	0.03369609999936074
1	10.914917699992657	stim	25		2	unambiguous	right	preferred	70.0	0.0		15.779689499991946	0.03334379999432713
1	10.948261499986984	stim	26		2	unambiguous	right	preferred	70.0	0.0		15.813033299986273	0.03349370008800179
1	10.981755200074986	stim	27		2	unambiguous	right	preferred	70.0	0.0		15.846527000074275	0.03687269997317344
1	11.018627900048159	stim	28		2	unambiguous	right	preferred	70.0	0.0		15.883399700047448	0.029915899969637394
1	11.048543800017796	stim	29		2	unambiguous	right	preferred	70.0	0.0		15.913315600017086	0.03379370004404336
1	11.08233750006184	stim	30		2	unambiguous	right	preferred	70.0	0.0		15.947109300061129	0.03675789991393685
1	11.119095399975777	stim	31		2	unambiguous	right	preferred	70.0	0.0		15.983867199975066	0.029753300012089312
1	11.148848699987866	stim	32		2	unambiguous	right	preferred	70.0	0.0		16.013620499987155	0.033599400077946484
1	11.182448100065812	stim	33		2	unambiguous	right	preferred	70.0	0.0		16.0472199000651	0.03358349995687604
1	11.216031600022689	stim	34		2	unambiguous	right	preferred	70.0	0.0		16.080803400021978	0.03686810005456209
1	11.25289970007725	stim	35		2	unambiguous	right	preferred	70.0	0.0		16.11767150007654	0.029841299983672798
1	11.282741000060923	stim	36		2	unambiguous	right	preferred	70.0	0.0		16.147512800060213	0.03874049999285489
1	11.321481500053778	stim	37		2	unambiguous	right	preferred	70.0	0.0		16.186253300053068	0.031463999999687076
1	11.352945500053465	stim	38		2	unambiguous	right	preferred	70.0	0.0		16.217717300052755	0.0331492000259459
1	11.386094700079411	stim	39		2	unambiguous	right	preferred	70.0	0.0		16.2508665000787	0.03338829998392612
1	11.419483000063337	stim	40		2	unambiguous	right	preferred	70.0	0.0		16.284254800062627	0.033447999972850084
1	11.452931000036187	stim	41		2	unambiguous	right	preferred	70.0	0.0		16.317702800035477	0.03358789999037981
1	11.486518900026567	stim	42		2	unambiguous	right	preferred	70.0	0.0		16.351290700025856	0.03328009997494519
1	11.519799000001512	stim	43		2	unambiguous	right	preferred	70.0	0.0		16.3845708000008	0.03231929999310523
1	11.552118299994618	stim	44		2	unambiguous	right	preferred	70.0	0.0		16.416890099993907	0.033973800018429756
1	11.586092100013047	stim	45		2	unambiguous	right	preferred	70.0	0.0		16.450863900012337	0.033403299981728196
1	11.619495399994776	stim	46		2	unambiguous	right	preferred	70.0	0.0		16.484267199994065	0.033255200018174946
1	11.65275060001295	stim	47		2	unambiguous	right	preferred	70.0	0.0		16.51752240001224	0.033967899973504245
1	11.686718499986455	stim	48		2	unambiguous	right	preferred	70.0	0.0		16.551490299985744	0.03296830004546791
1	11.719686800031923	stim	49		2	unambiguous	right	preferred	70.0	0.0		16.584458600031212	0.03490800003055483
1	11.754594800062478	stim	50		2	unambiguous	right	preferred	70.0	0.0		16.619366600061767	0.04823979991488159
1	11.80283459997736	stim	51		2	unambiguous	right	preferred	70.0	0.0		16.66760639997665	0.033323600073345006
1	11.836158200050704	stim	52		2	unambiguous	right	preferred	70.0	0.0		16.700930000049993	0.033347200020216405
1	11.86950540007092	stim	53		2	unambiguous	right	preferred	70.0	0.0		16.73427720007021	0.032090699998661876
1	11.901596100069582	stim	54		2	unambiguous	right	preferred	70.0	0.0		16.76636790006887	0.03454929997678846
1	11.936145400046371	stim	55		2	unambiguous	right	preferred	70.0	0.0		16.80091720004566	0.03504420001991093
1	11.971189600066282	stim	56		2	unambiguous	right	preferred	70.0	0.0		16.83596140006557	0.031659199972637
1	12.002848800038919	stim	57		2	unambiguous	right	preferred	70.0	0.0		16.867620600038208	0.03364099992904812
1	12.036489799967967	stim	58		2	unambiguous	right	preferred	70.0	0.0		16.901261599967256	0.04981450003106147
1	12.086304299999028	stim	59		2	unambiguous	right	preferred	70.0	0.0		16.951076099998318	0.05032330006361008
1	12.136627600062639	stim	60		2	unambiguous	right	preferred	70.0	0.0		17.001399400061928	0.03462189994752407
1	12.171249500010163	stim	61		2	unambiguous	right	preferred	70.0	0.0		17.036021300009452	0.031695100013166666
1	12.20294460002333	stim	62		2	unambiguous	right	preferred	70.0	0.0		17.06771640002262	0.033270400017499924
1	12.23621500004083	stim	63		2	unambiguous	right	preferred	70.0	0.0		17.10098680004012	0.03335799998603761
1	12.269573000026867	stim	64		2	unambiguous	right	preferred	70.0	0.0		17.134344800026156	0.03310939995571971
1	12.302682399982587	stim	65		2	unambiguous	right	preferred	70.0	0.0		17.167454199981876	0.03412379999645054
1	12.336806199979037	stim	66		2	unambiguous	right	preferred	70.0	0.0		17.201577999978326	0.032659800024703145
1	12.36946600000374	stim	67		2	unambiguous	right	preferred	70.0	0.0		17.23423780000303	0.03489020001143217
1	12.404356200015172	stim	68		2	unambiguous	right	preferred	70.0	0.0		17.26912800001446	0.0318577999714762
1	12.436213999986649	stim	69		2	unambiguous	right	preferred	70.0	0.0		17.300985799985938	0.03202949999831617
2	12.468243499984965	stim	0		2	unambiguous	left	preferred	71.0	70.0		17.333015299984254	0.03483970009256154
2	12.503083200077526	stim	1		2	unambiguous	left	preferred	71.0	70.0		17.367855000076815	0.0316705999430269
2	12.534753800020553	stim	2		2	unambiguous	left	preferred	71.0	70.0		17.399525600019842	0.035375499981455505
2	12.570129300002009	stim	3		2	unambiguous	left	preferred	71.0	70.0		17.434901100001298	0.03346619999501854
2	12.603595499997027	stim	4		2	unambiguous	left	preferred	71.0	70.0		17.468367299996316	0.032551600015722215
2	12.63614710001275	stim	5		2	unambiguous	left	preferred	71.0	70.0		17.50091890001204	0.03329559997655451
2	12.669442699989304	stim	6		2	unambiguous	left	preferred	71.0	70.0		17.534214499988593	0.03331010008696467
2	12.702752800076269	stim	7		2	unambiguous	left	preferred	71.0	70.0		17.567524600075558	0.0332977999933064
2	12.736050600069575	stim	8		2	unambiguous	left	preferred	71.0	70.0		17.600822400068864	0.03281419991981238
2	12.768864799989387	stim	9		2	unambiguous	left	preferred	71.0	70.0		17.633636599988677	0.034223100054077804
2	12.803087900043465	stim	10		2	unambiguous	left	preferred	71.0	70.0		17.667859700042754	0.03465879999566823
2	12.837746700039133	stim	11		2	unambiguous	left	preferred	71.0	70.0		17.702518500038423	0.03194210003130138
2	12.869688800070435	stim	12		2	unambiguous	left	preferred	71.0	70.0		17.734460600069724	0.03403499990236014
2	12.903723799972795	stim	13		2	unambiguous	left	preferred	71.0	70.0		17.768495599972084	0.03350380004849285
2	12.937227600021288	stim	14		2	unambiguous	left	preferred	71.0	70.0		17.801999400020577	0.03396589995827526
2	12.971193499979563	stim	15		2	unambiguous	left	preferred	71.0	70.0		17.835965299978852	0.03311570000369102
2	13.004309199983254	stim	16		2	unambiguous	left	preferred	71.0	70.0		17.869080999982543	0.034220000030472875
2	13.038529200013727	stim	17		2	unambiguous	left	preferred	71.0	70.0		17.903301000013016	0.03228990000206977
2	13.070819100015797	stim	18		2	unambiguous	left	preferred	71.0	70.0		17.935590900015086	0.033299900009296834
2	13.104119000025094	stim	19		2	unambiguous	left	preferred	71.0	70.0		17.968890800024383	0.03334329999051988
2	13.137462300015613	stim	20		2	unambiguous	left	preferred	71.0	70.0		18.002234100014903	0.03423300001304597
2	13.17169530002866	stim	21		2	unambiguous	left	preferred	71.0	70.0		18.03646710002795	0.0330170999513939
2	13.204712399980053	stim	22		2	unambiguous	left	preferred	71.0	70.0		18.069484199979343	0.033193000010214746
2	13.237905399990268	stim	23		2	unambiguous	left	preferred	71.0	70.0		18.102677199989557	0.033298499998636544
2	13.271203899988905	stim	24		2	unambiguous	left	preferred	71.0	70.0		18.135975699988194	0.03331510000862181
2	13.304518999997526	stim	25		2	unambiguous	left	preferred	71.0	70.0		18.169290799996816	0.03331209998577833
2	13.337831099983305	stim	26		2	unambiguous	left	preferred	71.0	70.0		18.202602899982594	0.03369609999936074
2	13.371527199982665	stim	27		2	unambiguous	left	preferred	71.0	70.0		18.236298999981955	0.033433200092986226
2	13.404960400075652	stim	28		2	unambiguous	left	preferred	71.0	70.0		18.26973220007494	0.03337129997089505
2	13.438331700046547	stim	29		2	unambiguous	left	preferred	71.0	70.0		18.303103500045836	0.033207900007255375
2	13.471539600053802	stim	30		2	unambiguous	left	preferred	71.0	70.0		18.33631140005309	0.033634699997492135
2	13.505174300051294	stim	31		2	unambiguous	left	preferred	71.0	70.0		18.369946100050583	0.0334022999741137
2	13.538576600025408	stim	32		2	unambiguous	left	preferred	71.0	70.0		18.403348400024697	0.03353020001668483
2	13.572106800042093	stim	33		2	unambiguous	left	preferred	71.0	70.0		18.436878600041382	0.03476029995363206
2	13.606867099995725	stim	34		2	unambiguous	left	preferred	71.0	70.0		18.471638899995014	0.03190649999305606
2	13.638773599988781	stim	35		2	unambiguous	left	preferred	71.0	70.0		18.50354539998807	0.033301400020718575
2	13.6720750000095	stim	36		2	unambiguous	left	preferred	71.0	70.0		18.53684680000879	0.03331850003451109
2	13.70539350004401	stim	37		2	unambiguous	left	preferred	71.0	70.0		18.5701653000433	0.033324699965305626
2	13.738718200009316	stim	38		2	unambiguous	left	preferred	71.0	70.0		18.603490000008605	0.033754599979147315
2	13.772472799988464	stim	39		2	unambiguous	left	preferred	71.0	70.0		18.637244599987753	0.03385900007560849
2	13.806331800064072	stim	40		2	unambiguous	left	preferred	71.0	70.0		18.67110360006336	0.03283359995111823
2	13.83916540001519	stim	41		2	unambiguous	left	preferred	71.0	70.0		18.70393720001448	0.03334500000346452
2	13.872510400018655	stim	42		2	unambiguous	left	preferred	71.0	70.0		18.737282200017944	0.03340570000000298
2	13.905916100018658	stim	43		2	unambiguous	left	preferred	71.0	70.0		18.770687900017947	0.033348900033161044
2	13.939265000051819	stim	44		2	unambiguous	left	preferred	71.0	70.0		18.804036800051108	0.03331239998806268
2	13.972577400039881	stim	45		2	unambiguous	left	preferred	71.0	70.0		18.83734920003917	0.033905899967066944
2	14.006483300006948	stim	46		2	unambiguous	left	preferred	71.0	70.0		18.871255100006238	0.03330810007173568
2	14.039791400078684	stim	47		2	unambiguous	left	preferred	71.0	70.0		18.904563200077973	0.03325189999304712
2	14.073043300071731	stim	48		2	unambiguous	left	preferred	71.0	70.0		18.93781510007102	0.033289299928583205
2	14.106332600000314	stim	49		2	unambiguous	left	preferred	71.0	70.0		18.971104399999604	0.03364160005003214
2	14.139974200050347	stim	50		2	unambiguous	left	preferred	71.0	70.0		19.004746000049636	0.03330889996141195
2	14.173283100011759	stim	51		2	unambiguous	left	preferred	71.0	70.0		19.038054900011048	0.03360540000721812
2	14.206888500018977	stim	52		2	unambiguous	left	preferred	71.0	70.0		19.071660300018266	0.03363700001500547
2	14.240525500033982	stim	53		2	unambiguous	left	preferred	71.0	70.0		19.10529730003327	0.032948600011877716
2	14.27347410004586	stim	54		2	unambiguous	left	preferred	71.0	70.0		19.13824590004515	0.0333165000192821
2	14.306790600065142	stim	55		2	unambiguous	left	preferred	71.0	70.0		19.17156240006443	0.03329139994457364
2	14.340082000009716	stim	56		2	unambiguous	left	preferred	71.0	70.0		19.204853800009005	0.03343539999332279
2	14.373517400003038	stim	57		2	unambiguous	left	preferred	71.0	70.0		19.238289200002328	0.03332340007182211
2	14.40684080007486	stim	58		2	unambiguous	left	preferred	71.0	70.0		19.27161260007415	0.03379699995275587
2	14.440637800027616	stim	59		2	unambiguous	left	preferred	71.0	70.0		19.305409600026906	0.033018299960531294
2	14.473656099988148	stim	60		2	unambiguous	left	preferred	71.0	70.0		19.338427899987437	0.033683800022117794
2	14.507339900010265	stim	61		2	unambiguous	left	preferred	71.0	70.0		19.372111700009555	0.03324460005387664
2	14.540584500064142	stim	62		2	unambiguous	left	preferred	71.0	70.0		19.40535630006343	0.03335849998984486
2	14.573943000053987	stim	63		2	unambiguous	left	preferred	71.0	70.0		19.438714800053276	0.033300000010058284
2	14.607243000064045	stim	64		2	unambiguous	left	preferred	71.0	70.0		19.472014800063334	0.03402369993273169
2	14.641266699996777	stim	65		2	unambiguous	left	preferred	71.0	70.0		19.506038499996066	0.03283560008276254
2	14.67410230007954	stim	66		2	unambiguous	left	preferred	71.0	70.0		19.53887410007883	0.033282199990935624
2	14.707384500070475	stim	67		2	unambiguous	left	preferred	71.0	70.0		19.572156300069764	0.03331369999796152
2	14.740698200068437	stim	68		2	unambiguous	left	preferred	71.0	70.0		19.605470000067726	0.0334764999570325
2	14.774174700025469	stim	69		2	unambiguous	left	preferred	71.0	70.0		19.63894650002476	0.03338090004399419
2	14.807555600069463	stim	70		2	unambiguous	left	preferred	71.0	70.0		19.672327400068752	0.03389839990995824
3	14.841453999979421	stim	0		2	unambiguous	right	preferred	69.0	141.0		19.70622579997871	0.03315070003736764
3	14.87460470001679	stim	1		2	unambiguous	right	preferred	69.0	141.0		19.73937650001608	0.03299560002051294
3	14.907600300037302	stim	2		2	unambiguous	right	preferred	69.0	141.0		19.77237210003659	0.03331860003527254
3	14.940918900072575	stim	3		2	unambiguous	right	preferred	69.0	141.0		19.805690700071864	0.033317499910481274
3	14.974236399983056	stim	4		2	unambiguous	right	preferred	69.0	141.0		19.839008199982345	0.033281100098975
3	15.007517500082031	stim	5		2	unambiguous	right	preferred	69.0	141.0		19.87228930008132	0.033558899885974824
3	15.041076399968006	stim	6		2	unambiguous	right	preferred	69.0	141.0		19.905848199967295	0.033954700105823576
3	15.07503110007383	stim	7		2	unambiguous	right	preferred	69.0	141.0		19.93980290007312	0.032611899892799556
3	15.107642999966629	stim	8		2	unambiguous	right	preferred	69.0	141.0		19.972414799965918	0.033292400068603456
3	15.140935400035232	stim	9		2	unambiguous	right	preferred	69.0	141.0		20.00570720003452	0.03328159998636693
3	15.1742170000216	stim	10		2	unambiguous	right	preferred	69.0	141.0		20.03898880002089	0.03339730005245656
3	15.207614300074056	stim	11		2	unambiguous	right	preferred	69.0	141.0		20.072386100073345	0.033305699937045574
3	15.240920000011101	stim	12		2	unambiguous	right	preferred	69.0	141.0		20.10569180001039	0.03390599996782839
3	15.27482599997893	stim	13		2	unambiguous	right	preferred	69.0	141.0		20.13959779997822	0.033041900023818016
3	15.307867900002748	stim	14		2	unambiguous	right	preferred	69.0	141.0		20.172639700002037	0.03317940002307296
3	15.34104730002582	stim	15		2	unambiguous	right	preferred	69.0	141.0		20.20581910002511	0.033416999969631433
3	15.374464299995452	stim	16		2	unambiguous	right	preferred	69.0	141.0		20.23923609999474	0.03335819998756051
3	15.407822499983013	stim	17		2	unambiguous	right	preferred	69.0	141.0		20.272594299982302	0.03344300005119294
3	15.441265500034206	stim	18		2	unambiguous	right	preferred	69.0	141.0		20.306037300033495	0.033787099993787706
3	15.475052600027993	stim	19		2	unambiguous	right	preferred	69.0	141.0		20.339824400027283	0.033700000029057264
3	15.50875260005705	stim	20		2	unambiguous	right	preferred	69.0	141.0		20.37352440005634	0.03289109992329031
3	15.541643699980341	stim	21		2	unambiguous	right	preferred	69.0	141.0		20.40641549997963	0.03338490007445216
3	15.575028600054793	stim	22		2	unambiguous	right	preferred	69.0	141.0		20.439800400054082	0.03347239992581308
3	15.608500999980606	stim	23		2	unambiguous	right	preferred	69.0	141.0		20.473272799979895	0.03343060007318854
3	15.641931600053795	stim	24		2	unambiguous	right	preferred	69.0	141.0		20.506703400053084	0.033563299919478595
3	15.675494899973273	stim	25		2	unambiguous	right	preferred	69.0	141.0		20.540266699972562	0.03468130005057901
3	15.710176200023852	stim	26		2	unambiguous	right	preferred	69.0	141.0		20.57494800002314	0.032127800048328936
3	15.742304000072181	stim	27		2	unambiguous	right	preferred	69.0	141.0		20.60707580007147	0.03330629994161427
3	15.775610300013795	stim	28		2	unambiguous	right	preferred	69.0	141.0		20.640382100013085	0.03327600006014109
3	15.808886300073937	stim	29		2	unambiguous	right	preferred	69.0	141.0		20.673658100073226	0.03330179990734905
3	15.842188099981286	stim	30		2	unambiguous	right	preferred	69.0	141.0		20.706959899980575	0.03334240010008216
3	15.875530500081368	stim	31		2	unambiguous	right	preferred	69.0	141.0		20.740302300080657	0.03389629989396781
3	15.909426799975336	stim	32		2	unambiguous	right	preferred	69.0	141.0		20.774198599974625	0.03301810007542372
3	15.94244490005076	stim	33		2	unambiguous	right	preferred	69.0	141.0		20.80721670005005	0.03341709997039288
3	15.975862000021152	stim	34		2	unambiguous	right	preferred	69.0	141.0		20.84063380002044	0.0332234000088647
3	16.009085400030017	stim	35		2	unambiguous	right	preferred	69.0	141.0		20.873857200029306	0.03335359995253384
3	16.04243899998255	stim	36		2	unambiguous	right	preferred	69.0	141.0		20.90721079998184	0.03351890004705638
3	16.075957900029607	stim	37		2	unambiguous	right	preferred	69.0	141.0		20.940729700028896	0.03361459996085614
3	16.109572499990463	stim	38		2	unambiguous	right	preferred	69.0	141.0		20.974344299989752	0.03336880006827414
3	16.142941300058737	stim	39		2	unambiguous	right	preferred	69.0	141.0		21.007713100058027	0.03303369996137917
3	16.175975000020117	stim	40		2	unambiguous	right	preferred	69.0	141.0		21.040746800019406	0.03332369995769113
3	16.209298699977808	stim	41		2	unambiguous	right	preferred	69.0	141.0		21.074070499977097	0.03331550001166761
3	16.242614199989475	stim	42		2	unambiguous	right	preferred	69.0	141.0		21.107385999988765	0.033296599984169006
3	16.275910799973644	stim	43		2	unambiguous	right	preferred	69.0	141.0		21.140682599972934	0.033459800062701106
3	16.309370600036345	stim	44		2	unambiguous	right	preferred	69.0	141.0		21.174142400035635	0.03396299993619323
3	16.34333359997254	stim	45		2	unambiguous	right	preferred	69.0	141.0		21.208105399971828	0.03269340004771948
3	16.376027000020258	stim	46		2	unambiguous	right	preferred	69.0	141.0		21.240798800019547	0.033387099974788725
3	16.409414099995047	stim	47		2	unambiguous	right	preferred	69.0	141.0		21.274185899994336	0.0333551000803709
3	16.442769200075418	stim	48		2	unambiguous	right	preferred	69.0	141.0		21.307541000074707	0.033917299937456846
3	16.476686500012875	stim	49		2	unambiguous	right	preferred	69.0	141.0		21.341458300012164	0.03326960001140833
3	16.509956100024283	stim	50		2	unambiguous	right	preferred	69.0	141.0		21.374727900023572	0.03385719994548708
3	16.54381329996977	stim	51		2	unambiguous	right	preferred	69.0	141.0		21.40858509996906	0.03293910005595535
3	16.576752400025725	stim	52		2	unambiguous	right	preferred	69.0	141.0		21.441524200025015	0.033264099969528615
3	16.610016499995254	stim	53		2	unambiguous	right	preferred	69.0	141.0		21.474788299994543	0.03335580008570105
3	16.643372300080955	stim	54		2	unambiguous	right	preferred	69.0	141.0		21.508144100080244	0.033292199950665236
3	16.67666450003162	stim	55		2	unambiguous	right	preferred	69.0	141.0		21.54143630003091	0.03331400000024587
3	16.709978500031866	stim	56		2	unambiguous	right	preferred	69.0	141.0		21.574750300031155	0.03358659998048097
3	16.743565100012347	stim	57		2	unambiguous	right	preferred	69.0	141.0		21.608336900011636	0.03362050000578165
3	16.77718560001813	stim	58		2	unambiguous	right	preferred	69.0	141.0		21.641957400017418	0.03318480006419122
3	16.81037040008232	stim	59		2	unambiguous	right	preferred	69.0	141.0		21.67514220008161	0.03322049998678267
3	16.843590900069103	stim	60		2	unambiguous	right	preferred	69.0	141.0		21.708362700068392	0.03333289991132915
3	16.876923799980432	stim	61		2	unambiguous	right	preferred	69.0	141.0		21.74169559997972	0.0339515000814572
3	16.91087530006189	stim	62		2	unambiguous	right	preferred	69.0	141.0		21.775647100061178	0.03377579990774393
3	16.944651099969633	stim	63		2	unambiguous	right	preferred	69.0	141.0		21.809422899968922	0.033416900085285306
3	16.97806800005492	stim	64		2	unambiguous	right	preferred	69.0	141.0		21.842839800054207	0.033015199936926365
3	17.011083199991845	stim	65		2	unambiguous	right	preferred	69.0	141.0		21.875854999991134	0.0335346000501886
3	17.044617800042033	stim	66		2	unambiguous	right	preferred	69.0	141.0		21.909389600041322	0.033452200004830956
3	17.078070000046864	stim	67		2	unambiguous	right	preferred	69.0	141.0		21.942841800046153	0.033542599994689226
3	17.111612600041553	stim	68		2	unambiguous	right	preferred	69.0	141.0		21.976384400040843	0.033390500000678
4	17.14500310004223	stim	0		2	unambiguous	left	preferred	67.0	20.0		22.00977490004152	0.03429149999283254
4	17.179294600035064	stim	1		2	unambiguous	left	preferred	67.0	20.0		22.044066400034353	0.0324838999658823
4	17.211778500000946	stim	2		2	unambiguous	left	preferred	67.0	20.0		22.076550300000235	0.03313600004184991
4	17.244914500042796	stim	3		2	unambiguous	left	preferred	67.0	20.0		22.109686300042085	0.033338299952447414
4	17.278252799995244	stim	4		2	unambiguous	left	preferred	67.0	20.0		22.143024599994533	0.03353490005247295
4	17.311787700047716	stim	5		2	unambiguous	left	preferred	67.0	20.0		22.176559500047006	0.03323800000362098
4	17.345025700051337	stim	6		2	unambiguous	left	preferred	67.0	20.0		22.209797500050627	0.03383219998795539
4	17.378857900039293	stim	7		2	unambiguous	left	preferred	67.0	20.0		22.243629700038582	0.03306169994175434
4	17.411919599981047	stim	8		2	unambiguous	left	preferred	67.0	20.0		22.276691399980336	0.03330210002604872
4	17.445221700007096	stim	9		2	unambiguous	left	preferred	67.0	20.0		22.309993500006385	0.03356130002066493
4	17.47878300002776	stim	10		2	unambiguous	left	preferred	67.0	20.0		22.34355480002705	0.03329870000015944
4	17.51208170002792	stim	11		2	unambiguous	left	preferred	67.0	20.0		22.37685350002721	0.03331540001090616
4	17.545397100038826	stim	12		2	unambiguous	left	preferred	67.0	20.0		22.410168900038116	0.033886299934238195
4	17.579283399973065	stim	13		2	unambiguous	left	preferred	67.0	20.0		22.444055199972354	0.03331349999643862
4	17.612596899969503	stim	14		2	unambiguous	left	preferred	67.0	20.0		22.477368699968792	0.03323520009871572
4	17.64583210006822	stim	15		2	unambiguous	left	preferred	67.0	20.0		22.510603900067508	0.033350199926644564
4	17.679182299994864	stim	16		2	unambiguous	left	preferred	67.0	20.0		22.543954099994153	0.03337580000516027
4	17.712558100000024	stim	17		2	unambiguous	left	preferred	67.0	20.0		22.577329899999313	0.03329040005337447
4	17.7458485000534	stim	18		2	unambiguous	left	preferred	67.0	20.0		22.610620300052688	0.033644999959506094
4	17.779493500012904	stim	19		2	unambiguous	left	preferred	67.0	20.0		22.644265300012194	0.03499690000899136
4	17.814490400021896	stim	20		2	unambiguous	left	preferred	67.0	20.0		22.679262200021185	0.031771000009030104
4	17.846261400030926	stim	21		2	unambiguous	left	preferred	67.0	20.0		22.711033200030215	0.03344849997665733
4	17.879709900007583	stim	22		2	unambiguous	left	preferred	67.0	20.0		22.744481700006872	0.03350480005610734
4	17.91321470006369	stim	23		2	unambiguous	left	preferred	67.0	20.0		22.77798650006298	0.03386899991892278
4	17.947083699982613	stim	24		2	unambiguous	left	preferred	67.0	20.0		22.811855499981903	0.03348600002937019
4	17.980569700011984	stim	25		2	unambiguous	left	preferred	67.0	20.0		22.845341500011273	0.03446090000215918
4	18.015030600014143	stim	26		2	unambiguous	left	preferred	67.0	20.0		22.879802400013432	0.03253760002553463
4	18.047568200039677	stim	27		2	unambiguous	left	preferred	67.0	20.0		22.912340000038967	0.033531100023537874
4	18.081099300063215	stim	28		2	unambiguous	left	preferred	67.0	20.0		22.945871100062504	0.03353559994138777
4	18.114634900004603	stim	29		2	unambiguous	left	preferred	67.0	20.0		22.979406700003892	0.0498102999990806
4	18.164445200003684	stim	30		2	unambiguous	left	preferred	67.0	20.0		23.029217000002973	0.033153300057165325
4	18.19759850006085	stim	31		2	unambiguous	left	preferred	67.0	20.0		23.062370300060138	0.033974100020714104
4	18.231572600081563	stim	32		2	unambiguous	left	preferred	67.0	20.0		23.096344400080852	0.03289299993775785
4	18.26446560001932	stim	33		2	unambiguous	left	preferred	67.0	20.0		23.12923740001861	0.03334510000422597
4	18.297810700023547	stim	34		2	unambiguous	left	preferred	67.0	20.0		23.162582500022836	0.033664099988527596
4	18.331474800012074	stim	35		2	unambiguous	left	preferred	67.0	20.0		23.196246600011364	0.03360389999579638
4	18.36507870000787	stim	36		2	unambiguous	left	preferred	67.0	20.0		23.22985050000716	0.033219599979929626
4	18.3982982999878	stim	37		2	unambiguous	left	preferred	67.0	20.0		23.26307009998709	0.03931780008133501
4	18.437616100069135	stim	38		2	unambiguous	left	preferred	67.0	20.0		23.302387900068425	0.047599499928765
4	18.4852155999979	stim	39		2	unambiguous	left	preferred	67.0	20.0		23.34998739999719	0.033298099995590746
4	18.51851369999349	stim	40		2	unambiguous	left	preferred	67.0	20.0		23.38328549999278	0.0334028999786824
4	18.551916599972174	stim	41		2	unambiguous	left	preferred	67.0	20.0		23.416688399971463	0.03322930005379021
4	18.585145900025964	stim	42		2	unambiguous	left	preferred	67.0	20.0		23.449917700025253	0.02999209996778518
4	18.61513799999375	stim	43		2	unambiguous	left	preferred	67.0	20.0		23.479909799993038	0.03877350001130253
4	18.65391150000505	stim	44		2	unambiguous	left	preferred	67.0	20.0		23.51868330000434	0.04800810001324862
4	18.7019196000183	stim	45		2	unambiguous	left	preferred	67.0	20.0		23.56669140001759	0.03360680001787841
4	18.73552640003618	stim	46		2	unambiguous	left	preferred	67.0	20.0		23.600298200035468	0.033409700030460954
4	18.76893610006664	stim	47		2	unambiguous	left	preferred	67.0	20.0		23.63370790006593	0.02987219998613
4	18.79880830005277	stim	48		2	unambiguous	left	preferred	67.0	20.0		23.66358010005206	0.03573010000400245
4	18.834538400056772	stim	49		2	unambiguous	left	preferred	67.0	20.0		23.69931020005606	0.036417299997992814
4	18.870955700054765	stim	50		2	unambiguous	left	preferred	67.0	20.0		23.735727500054054	0.03160109999589622
4	18.90255680005066	stim	51		2	unambiguous	left	preferred	67.0	20.0		23.76732860004995	0.033351499936543405
4	18.935908299987204	stim	52		2	unambiguous	left	preferred	67.0	20.0		23.800680099986494	0.03320030006580055
4	18.969108600053005	stim	53		2	unambiguous	left	preferred	67.0	20.0		23.833880400052294	0.0339244999922812
4	19.003033100045286	stim	54		2	unambiguous	left	preferred	67.0	20.0		23.867804900044575	0.03330649994313717
4	19.036339599988423	stim	55		2	unambiguous	left	preferred	67.0	20.0		23.901111399987713	0.03403970005456358
4	19.070379300042987	stim	56		2	unambiguous	left	preferred	67.0	20.0		23.935151100042276	0.03233269997872412
4	19.10271200002171	stim	57		2	unambiguous	left	preferred	67.0	20.0		23.967483800021	0.033423000015318394
4	19.13613500003703	stim	58		2	unambiguous	left	preferred	67.0	20.0		24.00090680003632	0.03320970002096146
4	19.16934470005799	stim	59		2	unambiguous	left	preferred	67.0	20.0		24.03411650005728	0.04895169998053461
4	19.218296400038525	stim	60		2	unambiguous	left	preferred	67.0	20.0		24.083068200037815	0.03328380000311881
4	19.251580200041644	stim	61		2	unambiguous	left	preferred	67.0	20.0		24.116352000040933	0.03649500000756234
4	19.288075200049207	stim	62		2	unambiguous	left	preferred	67.0	20.0		24.152847000048496	0.04804199992213398
4	19.33611719997134	stim	63		2	unambiguous	left	preferred	67.0	20.0		24.20088899997063	0.03335290006361902
4	19.36947010003496	stim	64		2	unambiguous	left	preferred	67.0	20.0		24.23424190003425	0.033234699978493154
4	19.402704800013453	stim	65		2	unambiguous	left	preferred	67.0	20.0		24.267476600012742	0.03370769997127354
4	19.436412499984726	stim	66		2	unambiguous	left	preferred	67.0	20.0		24.301184299984016	0.033136900048702955
5	19.46954940003343	stim	0		2	unambiguous	right	preferred	71.0	87.0		24.33432120003272	0.03542349999770522
5	19.504972900031134	stim	1		2	unambiguous	right	preferred	71.0	87.0		24.369744700030424	0.04768980003427714
5	19.55266270006541	stim	2		2	unambiguous	right	preferred	71.0	87.0		24.4174345000647	0.0333715999731794
5	19.58603430003859	stim	3		2	unambiguous	right	preferred	71.0	87.0		24.45080610003788	0.033209600020200014
5	19.61924390005879	stim	4		2	unambiguous	right	preferred	71.0	87.0		24.48401570005808	0.03216740000061691
5	19.651411300059408	stim	5		2	unambiguous	right	preferred	71.0	87.0		24.516183100058697	0.03475569991860539
5	19.686166999978013	stim	6		2	unambiguous	right	preferred	71.0	87.0		24.550938799977303	0.03551740001421422
5	19.721684399992228	stim	7		2	unambiguous	right	preferred	71.0	87.0		24.586456199991517	0.047532600001432
5	19.76921699999366	stim	8		2	unambiguous	right	preferred	71.0	87.0		24.63398879999295	0.033372499980032444
5	19.802589499973692	stim	9		2	unambiguous	right	preferred	71.0	87.0		24.66736129997298	0.032175400061532855
5	19.834764900035225	stim	10		2	unambiguous	right	preferred	71.0	87.0		24.699536700034514	0.0351898999651894
5	19.869954800000414	stim	11		2	unambiguous	right	preferred	71.0	87.0		24.734726599999703	0.04992420005146414
5	19.91987900005188	stim	12		2	unambiguous	right	preferred	71.0	87.0		24.784650800051168	0.03285650000907481
5	19.952735500060953	stim	13		2	unambiguous	right	preferred	71.0	87.0		24.817507300060242	0.03322589991148561
5	19.98596139997244	stim	14		2	unambiguous	right	preferred	71.0	87.0		24.850733199971728	0.033420100109651685
5	20.01938150008209	stim	15		2	unambiguous	right	preferred	71.0	87.0		24.88415330008138	0.03308169997762889
5	20.05246320005972	stim	16		2	unambiguous	right	preferred	71.0	87.0		24.91723500005901	0.033917699940502644
5	20.086380900000222	stim	17		2	unambiguous	right	preferred	71.0	87.0		24.95115269999951	0.03513510001357645
5	20.1215160000138	stim	18		2	unambiguous	right	preferred	71.0	87.0		24.986287800013088	0.032963200006634
5	20.154479200020432	stim	19		2	unambiguous	right	preferred	71.0	87.0		25.01925100001972	0.031382399960421026
5	20.185861599980853	stim	20		2	unambiguous	right	preferred	71.0	87.0		25.050633399980143	0.03337210009340197
5	20.219233700074255	stim	21		2	unambiguous	right	preferred	71.0	87.0		25.084005500073545	0.03347219992429018
5	20.252705899998546	stim	22		2	unambiguous	right	preferred	71.0	87.0		25.117477699997835	0.03348830004688352
5	20.28619420004543	stim	23		2	unambiguous	right	preferred	71.0	87.0		25.15096600004472	0.03425709996372461
5	20.320451300009154	stim	24		2	unambiguous	right	preferred	71.0	87.0		25.185223100008443	0.03293890005443245
5	20.353390200063586	stim	25		2	unambiguous	right	preferred	71.0	87.0		25.218162000062875	0.03270899993367493
5	20.38609919999726	stim	26		2	unambiguous	right	preferred	71.0	87.0		25.25087099999655	0.03315230004955083
5	20.419251500046812	stim	27		2	unambiguous	right	preferred	71.0	87.0		25.2840233000461	0.03386049997061491
5	20.453112000017427	stim	28		2	unambiguous	right	preferred	71.0	87.0		25.317883800016716	0.03303369996137917
5	20.486145699978806	stim	29		2	unambiguous	right	preferred	71.0	87.0		25.350917499978095	0.03391590004321188
5	20.520061600022018	stim	30		2	unambiguous	right	preferred	71.0	87.0		25.384833400021307	0.03321370005141944
5	20.553275300073437	stim	31		2	unambiguous	right	preferred	71.0	87.0		25.418047100072727	0.03500749997328967
5	20.588282800046727	stim	32		2	unambiguous	right	preferred	71.0	87.0		25.453054600046016	0.031076999963261187
5	20.61935980000999	stim	33		2	unambiguous	right	preferred	71.0	87.0		25.484131600009277	0.03382480004802346
5	20.65318460005801	stim	34		2	unambiguous	right	preferred	71.0	87.0		25.5179564000573	0.03306049993261695
5	20.68624509999063	stim	35		2	unambiguous	right	preferred	71.0	87.0		25.551016899989918	0.03385750006418675
5	20.720102600054815	stim	36		2	unambiguous	right	preferred	71.0	87.0		25.584874400054105	0.033566299942322075
5	20.753668899997137	stim	37		2	unambiguous	right	preferred	71.0	87.0		25.618440699996427	0.0329705000622198
5	20.786639400059357	stim	38		2	unambiguous	right	preferred	71.0	87.0		25.651411200058647	0.033467400004155934
5	20.820106800063513	stim	39		2	unambiguous	right	preferred	71.0	87.0		25.684878600062802	0.03340570000000298
5	20.853512500063516	stim	40		2	unambiguous	right	preferred	71.0	87.0		25.718284300062805	0.033335399930365384
5	20.88684789999388	stim	41		2	unambiguous	right	preferred	71.0	87.0		25.75161969999317	0.03357119997963309
5	20.920419099973515	stim	42		2	unambiguous	right	preferred	71.0	87.0		25.785190899972804	0.0338068000273779
5	20.954225900000893	stim	43		2	unambiguous	right	preferred	71.0	87.0		25.818997700000182	0.03274769999552518
5	20.986973599996418	stim	44		2	unambiguous	right	preferred	71.0	87.0		25.851745399995707	0.03332240006420761
5	21.020296000060625	stim	45		2	unambiguous	right	preferred	71.0	87.0		25.885067800059915	0.03335099993273616
5	21.05364699999336	stim	46		2	unambiguous	right	preferred	71.0	87.0		25.91841879999265	0.033327699988149107
5	21.08697469998151	stim	47		2	unambiguous	right	preferred	71.0	87.0		25.9517464999808	0.033378300024196506
5	21.120353000005707	stim	48		2	unambiguous	right	preferred	71.0	87.0		25.985124800004996	0.03470810002181679
5	21.155061100027524	stim	49		2	unambiguous	right	preferred	71.0	87.0		26.019832900026813	0.032680199947208166
5	21.187741299974732	stim	50		2	unambiguous	right	preferred	71.0	87.0		26.05251309997402	0.033375400002114475
5	21.221116699976847	stim	51		2	unambiguous	right	preferred	71.0	87.0		26.085888499976136	0.03346770000644028
5	21.254584399983287	stim	52		2	unambiguous	right	preferred	71.0	87.0		26.119356199982576	0.03344780008774251
5	21.28803220007103	stim	53		2	unambiguous	right	preferred	71.0	87.0		26.15280400007032	0.033520599943585694
5	21.321552800014615	stim	54		2	unambiguous	right	preferred	71.0	87.0		26.186324600013904	0.033936999971047044
5	21.355489799985662	stim	55		2	unambiguous	right	preferred	71.0	87.0		26.22026159998495	0.0329624000005424
5	21.388452199986205	stim	56		2	unambiguous	right	preferred	71.0	87.0		26.253223999985494	0.03342019999399781
5	21.421872399980202	stim	57		2	unambiguous	right	preferred	71.0	87.0		26.28664419997949	0.03343950002454221
5	21.455311900004745	stim	58		2	unambiguous	right	preferred	71.0	87.0		26.320083700004034	0.033409700030460954
5	21.488721600035205	stim	59		2	unambiguous	right	preferred	71.0	87.0		26.353493400034495	0.03339689993299544
5	21.5221184999682	stim	60		2	unambiguous	right	preferred	71.0	87.0		26.38689029996749	0.03387410007417202
5	21.555992600042373	stim	61		2	unambiguous	right	preferred	71.0	87.0		26.420764400041662	0.0329626000020653
5	21.58895520004444	stim	62		2	unambiguous	right	preferred	71.0	87.0		26.453727000043727	0.03325590002350509
5	21.622211100067943	stim	63		2	unambiguous	right	preferred	71.0	87.0		26.486982900067233	0.03331059997435659
5	21.6555217000423	stim	64		2	unambiguous	right	preferred	71.0	87.0		26.52029350004159	0.0333286999957636
5	21.688850400038064	stim	65		2	unambiguous	right	preferred	71.0	87.0		26.553622200037353	0.03336230001877993
5	21.722212700056843	stim	66		2	unambiguous	right	preferred	71.0	87.0		26.586984500056133	0.033458099933341146
5	21.755670799990185	stim	67		2	unambiguous	right	preferred	71.0	87.0		26.620442599989474	0.03377330000512302
5	21.789444099995308	stim	68		2	unambiguous	right	preferred	71.0	87.0		26.654215899994597	0.03282500000204891
5	21.822269099997357	stim	69		2	unambiguous	right	preferred	71.0	87.0		26.687040899996646	0.033317700028419495
5	21.855586800025776	stim	70		2	unambiguous	right	preferred	71.0	87.0		26.720358600025065	0.03329289995599538
6	21.88887969998177	stim	0		2	unambiguous	left	preferred	71.0	158.0		26.75365149998106	0.03333730006124824
6	21.92221700004302	stim	1		2	unambiguous	left	preferred	71.0	158.0		26.78698880004231	0.033344299998134375
6	21.955561300041154	stim	2		2	unambiguous	left	preferred	71.0	158.0		26.820333100040443	0.033969399984925985
6	21.98953070002608	stim	3		2	unambiguous	left	preferred	71.0	158.0		26.85430250002537	0.03308710001874715
6	22.022617800044827	stim	4		2	unambiguous	left	preferred	71.0	158.0		26.887389600044116	0.03372309997212142
6	22.05634090001695	stim	5		2	unambiguous	left	preferred	71.0	158.0		26.921112700016238	0.04975700005888939
6	22.106097900075838	stim	6		2	unambiguous	left	preferred	71.0	158.0		26.970869700075127	0.03310739994049072
6	22.13920530001633	stim	7		2	unambiguous	left	preferred	71.0	158.0		27.003977100015618	0.03355070005636662
6	22.172756000072695	stim	8		2	unambiguous	left	preferred	71.0	158.0		27.037527800071985	0.034474699990823865
6	22.20723070006352	stim	9		2	unambiguous	left	preferred	71.0	158.0		27.07200250006281	0.032071699970401824
6	22.23930240003392	stim	10		2	unambiguous	left	preferred	71.0	158.0		27.10407420003321	0.03332379995845258
6	22.272626199992374	stim	11		2	unambiguous	left	preferred	71.0	158.0		27.137397999991663	0.03332270006649196
6	22.305948900058866	stim	12		2	unambiguous	left	preferred	71.0	158.0		27.170720700058155	0.03331959992647171
6	22.339268499985337	stim	13		2	unambiguous	left	preferred	71.0	158.0		27.204040299984626	0.03333780006505549
6	22.372606300050393	stim	14		2	unambiguous	left	preferred	71.0	158.0		27.237378100049682	0.03372449998278171
6	22.406330800033174	stim	15		2	unambiguous	left	preferred	71.0	158.0		27.271102600032464	0.03313729993533343
6	22.439468099968508	stim	16		2	unambiguous	left	preferred	71.0	158.0		27.304239899967797	0.033219800097867846
6	22.472687900066376	stim	17		2	unambiguous	left	preferred	71.0	158.0		27.337459700065665	0.033345600008033216
6	22.50603350007441	stim	18		2	unambiguous	left	preferred	71.0	158.0		27.370805300073698	0.03332919999957085
6	22.53936270007398	stim	19		2	unambiguous	left	preferred	71.0	158.0		27.40413450007327	0.033305399934761226
6	22.57266810000874	stim	20		2	unambiguous	left	preferred	71.0	158.0		27.43743990000803	0.03355359996203333
6	22.606221699970774	stim	21		2	unambiguous	left	preferred	71.0	158.0		27.470993499970064	0.03406540001742542
6	22.6402870999882	stim	22		2	unambiguous	left	preferred	71.0	158.0		27.50505889998749	0.03261420002672821
6	22.672901300014928	stim	23		2	unambiguous	left	preferred	71.0	158.0		27.537673100014217	0.033319300040602684
6	22.70622060005553	stim	24		2	unambiguous	left	preferred	71.0	158.0		27.57099240005482	0.03325999993830919
6	22.73948059999384	stim	25		2	unambiguous	left	preferred	71.0	158.0		27.60425239999313	0.0333553000818938
6	22.772835900075734	stim	26		2	unambiguous	left	preferred	71.0	158.0		27.637607700075023	0.03363570000510663
6	22.80647160008084	stim	27		2	unambiguous	left	preferred	71.0	158.0		27.67124340008013	0.033916199929080904
6	22.84038780000992	stim	28		2	unambiguous	left	preferred	71.0	158.0		27.70515960000921	0.03298480005469173
6	22.873372600064613	stim	29		2	unambiguous	left	preferred	71.0	158.0		27.738144400063902	0.03321779996622354
6	22.906590400030836	stim	30		2	unambiguous	left	preferred	71.0	158.0		27.771362200030126	0.033570799976587296
6	22.940161200007424	stim	31		2	unambiguous	left	preferred	71.0	158.0		27.804933000006713	0.03375940001569688
6	22.97392060002312	stim	32		2	unambiguous	left	preferred	71.0	158.0		27.83869240002241	0.03333190002012998
6	23.00725250004325	stim	33		2	unambiguous	left	preferred	71.0	158.0		27.87202430004254	0.033791800029575825
6	23.041044300072826	stim	34		2	unambiguous	left	preferred	71.0	158.0		27.905816100072116	0.033066999982111156
6	23.074111300054938	stim	35		2	unambiguous	left	preferred	71.0	158.0		27.938883100054227	0.033243099926039577
6	23.107354399980977	stim	36		2	unambiguous	left	preferred	71.0	158.0		27.972126199980266	0.033333900035358965
6	23.140688300016336	stim	37		2	unambiguous	left	preferred	71.0	158.0		28.005460100015625	0.03326040005777031
6	23.173948700074106	stim	38		2	unambiguous	left	preferred	71.0	158.0		28.038720500073396	0.033272799919359386
6	23.207221499993466	stim	39		2	unambiguous	left	preferred	71.0	158.0		28.071993299992755	0.0337256999919191
6	23.240947199985385	stim	40		2	unambiguous	left	preferred	71.0	158.0		28.105718999984674	0.03352120006456971
6	23.274468400049955	stim	41		2	unambiguous	left	preferred	71.0	158.0		28.139240200049244	0.03311249997932464
6	23.30758090002928	stim	42		2	unambiguous	left	preferred	71.0	158.0		28.17235270002857	0.03327679994981736
6	23.340857699979097	stim	43		2	unambiguous	left	preferred	71.0	158.0		28.205629499978386	0.03334449999965727
6	23.374202199978754	stim	44		2	unambiguous	left	preferred	71.0	158.0		28.238973999978043	0.033258300041779876
6	23.407460500020534	stim	45		2	unambiguous	left	preferred	71.0	158.0		28.272232300019823	0.03364559996407479
6	23.44110609998461	stim	46		2	unambiguous	left	preferred	71.0	158.0		28.305877899983898	0.03421080007683486
6	23.475316900061443	stim	47		2	unambiguous	left	preferred	71.0	158.0		28.340088700060733	0.032524899928830564
6	23.507841799990274	stim	48		2	unambiguous	left	preferred	71.0	158.0		28.372613599989563	0.0333286999957636
6	23.541170499986038	stim	49		2	unambiguous	left	preferred	71.0	158.0		28.405942299985327	0.03330660006031394
6	23.57447710004635	stim	50		2	unambiguous	left	preferred	71.0	158.0		28.43924890004564	0.03329289995599538
6	23.607770000002347	stim	51		2	unambiguous	left	preferred	71.0	158.0		28.472541800001636	0.03362860006745905
6	23.641398600069806	stim	52		2	unambiguous	left	preferred	71.0	158.0		28.506170400069095	0.033827299950644374
6	23.67522590002045	stim	53		2	unambiguous	left	preferred	71.0	158.0		28.53999770001974	0.0328774000518024
6	23.708103300072253	stim	54		2	unambiguous	left	preferred	71.0	158.0		28.572875100071542	0.03366379998624325
6	23.741767100058496	stim	55		2	unambiguous	left	preferred	71.0	158.0		28.606538900057785	0.03331129997968674
6	23.775078400038183	stim	56		2	unambiguous	left	preferred	71.0	158.0		28.639850200037472	0.03324809996411204
6	23.808326500002295	stim	57		2	unambiguous	left	preferred	71.0	158.0		28.673098300001584	0.033350200043059886
6	23.841676700045355	stim	58		2	unambiguous	left	preferred	71.0	158.0		28.706448500044644	0.0343525999924168
6	23.87602930003777	stim	59		2	unambiguous	left	preferred	71.0	158.0		28.74080110003706	0.03281010000500828
6	23.90883940004278	stim	60		2	unambiguous	left	preferred	71.0	158.0		28.77361120004207	0.03329789999406785
6	23.942137300036848	stim	61		2	unambiguous	left	preferred	71.0	158.0		28.806909100036137	0.03334189997985959
6	23.975479200016707	stim	62		2	unambiguous	left	preferred	71.0	158.0		28.840251000015996	0.03332709998358041
6	24.008806300000288	stim	63		2	unambiguous	left	preferred	71.0	158.0		28.873578099999577	0.03358899999875575
6	24.042395299999043	stim	64		2	unambiguous	left	preferred	71.0	158.0		28.907167099998333	0.03392309998162091
6	24.076318399980664	stim	65		2	unambiguous	left	preferred	71.0	158.0		28.941090199979953	0.03317459998652339
6	24.109492999967188	stim	66		2	unambiguous	left	preferred	71.0	158.0		28.974264799966477	0.033294000080786645
6	24.142787000047974	stim	67		2	unambiguous	left	preferred	71.0	158.0		29.007558800047264	0.033732199924997985
6	24.176519199972972	stim	68		2	unambiguous	left	preferred	71.0	158.0		29.04129099997226	0.05022450000979006
6	24.226743699982762	stim	69		2	unambiguous	left	preferred	71.0	158.0		29.09151549998205	0.033310200087726116
6	24.26005390007049	stim	70		2	unambiguous	left	preferred	71.0	158.0		29.124825700069778	0.03404739999677986
7	24.29410130006727	stim	0		2	unambiguous	right	preferred	67.0	39.0		29.158873100066558	0.03314339998178184
7	24.32724470004905	stim	1		2	unambiguous	right	preferred	67.0	39.0		29.19201650004834	0.03320569999050349
7	24.360450400039554	stim	2		2	unambiguous	right	preferred	67.0	39.0		29.225222200038843	0.03337650001049042
7	24.393826900050044	stim	3		2	unambiguous	right	preferred	67.0	39.0		29.258598700049333	0.033314400003291667
7	24.427141300053336	stim	4		2	unambiguous	right	preferred	67.0	39.0		29.291913100052625	0.03347979998216033
7	24.460621100035496	stim	5		2	unambiguous	right	preferred	67.0	39.0		29.325392900034785	0.03374230000190437
7	24.4943634000374	stim	6		2	unambiguous	right	preferred	67.0	39.0		29.35913520003669	0.03312149993143976
7	24.52748489996884	stim	7		2	unambiguous	right	preferred	67.0	39.0		29.39225669996813	0.033177000004798174
7	24.56066189997364	stim	8		2	unambiguous	right	preferred	67.0	39.0		29.425433699972928	0.03341290005482733
7	24.594074800028466	stim	9		2	unambiguous	right	preferred	67.0	39.0		29.458846600027755	0.03336320002563298
7	24.6274380000541	stim	10		2	unambiguous	right	preferred	67.0	39.0		29.492209800053388	0.033843599958345294
7	24.661281600012444	stim	11		2	unambiguous	right	preferred	67.0	39.0		29.526053400011733	0.03354780003428459
7	24.69482940004673	stim	12		2	unambiguous	right	preferred	67.0	39.0		29.559601200046018	0.03316300001461059
7	24.72799240006134	stim	13		2	unambiguous	right	preferred	67.0	39.0		29.59276420006063	0.033332399907521904
7	24.76132479996886	stim	14		2	unambiguous	right	preferred	67.0	39.0		29.62609659996815	0.03328840003814548
7	24.794613200007007	stim	15		2	unambiguous	right	preferred	67.0	39.0		29.659385000006296	0.03338020003866404
7	24.82799340004567	stim	16		2	unambiguous	right	preferred	67.0	39.0		29.69276520004496	0.03329609998036176
7	24.861289500026032	stim	17		2	unambiguous	right	preferred	67.0	39.0		29.72606130002532	0.03355950000695884
7	24.89484900003299	stim	18		2	unambiguous	right	preferred	67.0	39.0		29.75962080003228	0.034353399998508394
7	24.9292024000315	stim	19		2	unambiguous	right	preferred	67.0	39.0		29.79397420003079	0.032735400018282235
7	24.961937800049782	stim	20		2	unambiguous	right	preferred	67.0	39.0		29.82670960004907	0.033736799960024655
7	24.995674600009806	stim	21		2	unambiguous	right	preferred	67.0	39.0		29.860446400009096	0.03357760002836585
7	25.029252200038172	stim	22		2	unambiguous	right	preferred	67.0	39.0		29.89402400003746	0.05020459997467697
7	25.07945680001285	stim	23		2	unambiguous	right	preferred	67.0	39.0		29.94422860001214	0.03374069998972118
7	25.11319750000257	stim	24		2	unambiguous	right	preferred	67.0	39.0		29.97796930000186	0.0329937000060454
7	25.146191200008616	stim	25		2	unambiguous	right	preferred	67.0	39.0		30.010963000007905	0.033319000038318336
7	25.179510200046934	stim	26		2	unambiguous	right	preferred	67.0	39.0		30.044282000046223	0.03349179995711893
7	25.213002000004053	stim	27		2	unambiguous	right	preferred	67.0	39.0		30.077773800003342	0.03325960005167872
7	25.246261600055732	stim	28		2	unambiguous	right	preferred	67.0	39.0		30.11103340005502	0.03403929993510246
7	25.280300899990834	stim	29		2	unambiguous	right	preferred	67.0	39.0		30.145072699990124	0.03346820001024753
7	25.313769100001082	stim	30		2	unambiguous	right	preferred	67.0	39.0		30.17854090000037	0.03373680007643998
7	25.347505900077522	stim	31		2	unambiguous	right	preferred	67.0	39.0		30.21227770007681	0.033152899937704206
7	25.380658800015226	stim	32		2	unambiguous	right	preferred	67.0	39.0		30.245430600014515	0.03326759999617934
7	25.413926400011405	stim	33		2	unambiguous	right	preferred	67.0	39.0		30.278698200010695	0.033639200031757355
7	25.447565600043163	stim	34		2	unambiguous	right	preferred	67.0	39.0		30.312337400042452	0.03699819999746978
7	25.484563800040632	stim	35		2	unambiguous	right	preferred	67.0	39.0		30.34933560003992	0.04898379999212921
7	25.53354760003276	stim	36		2	unambiguous	right	preferred	67.0	39.0		30.39831940003205	0.034622799954377115
7	25.56817039998714	stim	37		2	unambiguous	right	preferred	67.0	39.0		30.432942199986428	0.030225900001823902
7	25.598396299988963	stim	38		2	unambiguous	right	preferred	67.0	39.0		30.463168099988252	0.03328740003053099
7	25.631683700019494	stim	39		2	unambiguous	right	preferred	67.0	39.0		30.496455500018783	0.03361439995933324
7	25.665298099978827	stim	40		2	unambiguous	right	preferred	67.0	39.0		30.530069899978116	0.033523500082083046
7	25.69882160006091	stim	41		2	unambiguous	right	preferred	67.0	39.0		30.5635934000602	0.037002199911512434
7	25.735823799972422	stim	42		2	unambiguous	right	preferred	67.0	39.0		30.60059559997171	0.033009500009939075
7	25.76883329998236	stim	43		2	unambiguous	right	preferred	67.0	39.0		30.63360509998165	0.033498200005851686
7	25.802331499988213	stim	44		2	unambiguous	right	preferred	67.0	39.0		30.667103299987502	0.03322189999744296
7	25.835553399985656	stim	45		2	unambiguous	right	preferred	67.0	39.0		30.700325199984945	0.03349370008800179
7	25.869047100073658	stim	46		2	unambiguous	right	preferred	67.0	39.0		30.733818900072947	0.03333169990219176
7	25.90237879997585	stim	47		2	unambiguous	right	preferred	67.0	39.0		30.76715059997514	0.03366489999461919
7	25.93604369997047	stim	48		2	unambiguous	right	preferred	67.0	39.0		30.800815499969758	0.034849500050768256
7	25.970893200021237	stim	49		2	unambiguous	right	preferred	67.0	39.0		30.835665000020526	0.028542299987748265
7	25.999435500008985	stim	50		2	unambiguous	right	preferred	67.0	39.0		30.864207300008275	0.03634210000745952
7	26.035777600016445	stim	51		2	unambiguous	right	preferred	67.0	39.0		30.900549400015734	0.03331590001471341
7	26.06909350003116	stim	52		2	unambiguous	right	preferred	67.0	39.0		30.933865300030448	0.030359199969097972
7	26.099452700000256	stim	53		2	unambiguous	right	preferred	67.0	39.0		30.964224499999546	0.03682580008171499
7	26.13627850008197	stim	54		2	unambiguous	right	preferred	67.0	39.0		31.00105030008126	0.033236099989153445
7	26.169514600071125	stim	55		2	unambiguous	right	preferred	67.0	39.0		31.034286400070414	0.03324249992147088
7	26.202757099992596	stim	56		0	unambiguous	right	preferred	67.0	39.0		31.067528899991885	0.0804651000071317
