trial_nr	onset	event_type	phase	response	nr_frames	block_type	trial_type	response_hand	phase_length	last_frame	key_duration	onset_abs	duration
0	0.010094100027345121	stim	0		0	break	break	preferred	1.0	0.0		4.187521999934688	2.766362200025469
0	2.776456300052814	break	0	space	0	break	break	preferred	1.0	0.0	0.06861879990901798	6.953884199960157	0.24187699996400625
0	3.0183333000168204	break	0	space	0	break	break	preferred	1.0	0.0	0.1534401000244543	7.1957611999241635	0.3667571999831125
0	3.385090499999933	break	0	space	119	break	break	preferred	1.0	0.0	0.08976810006424785	7.562518399907276	-1.286750499974005
1	2.098340000025928	stim	0		2	unambiguous	right	preferred	66.0	0.0		6.275767899933271	0.03355429996736348
1	2.1318942999932915	stim	1		2	unambiguous	right	preferred	66.0	0.0		6.309322199900635	0.033347100019454956
1	2.1652414000127465	stim	2		2	unambiguous	right	preferred	66.0	0.0		6.3426692999200895	0.03339999995660037
1	2.198641399969347	stim	3		2	unambiguous	right	preferred	66.0	0.0		6.37606929987669	0.03323179995641112
1	2.231873199925758	stim	4		2	unambiguous	right	preferred	66.0	0.0		6.409301099833101	0.033532500034198165
1	2.265405699959956	stim	5		2	unambiguous	right	preferred	66.0	0.0		6.442833599867299	0.03368870005942881
1	2.299094400019385	stim	6		2	unambiguous	right	preferred	66.0	0.0		6.476522299926728	0.03312289994210005
1	2.332217299961485	stim	7		2	unambiguous	right	preferred	66.0	0.0		6.509645199868828	0.033775500021874905
1	2.36599279998336	stim	8		2	unambiguous	right	preferred	66.0	0.0		6.543420699890703	0.03322009998373687
1	2.3992128999670967	stim	9		2	unambiguous	right	preferred	66.0	0.0		6.57664079987444	0.03338040004018694
1	2.4325933000072837	stim	10		2	unambiguous	right	preferred	66.0	0.0		6.610021199914627	0.033548699924722314
1	2.466141999932006	stim	11		2	unambiguous	right	preferred	66.0	0.0		6.643569899839349	0.033252199995331466
1	2.4993941999273375	stim	12		2	unambiguous	right	preferred	66.0	0.0		6.676822099834681	0.033464700100012124
1	2.5328589000273496	stim	13		2	unambiguous	right	preferred	66.0	0.0		6.710286799934693	0.03335799998603761
1	2.566216900013387	stim	14		2	unambiguous	right	preferred	66.0	0.0		6.74364479992073	0.03347799996845424
1	2.5996948999818414	stim	15		2	unambiguous	right	preferred	66.0	0.0		6.7771227998891845	0.03315819997806102
1	2.6328530999599025	stim	16		2	unambiguous	right	preferred	66.0	0.0		6.8102809998672456	0.033769299974665046
1	2.6666223999345675	stim	17		2	unambiguous	right	preferred	66.0	0.0		6.844050299841911	0.03339510003570467
1	2.700017499970272	stim	18		2	unambiguous	right	preferred	66.0	0.0		6.877445399877615	0.03352169995196164
1	2.733539199922234	stim	19		2	unambiguous	right	preferred	66.0	0.0		6.910967099829577	0.03343310009222478
1	2.7669723000144586	stim	20		2	unambiguous	right	preferred	66.0	0.0		6.944400199921802	0.033323599956929684
1	2.8002958999713883	stim	21		2	unambiguous	right	preferred	66.0	0.0		6.977723799878731	0.03346299997065216
1	2.8337588999420404	stim	22		2	unambiguous	right	preferred	66.0	0.0		7.0111867998493835	0.0332624000729993
1	2.8670213000150397	stim	23		2	unambiguous	right	preferred	66.0	0.0		7.044449199922383	0.03329569997731596
1	2.9003169999923557	stim	24		2	unambiguous	right	preferred	66.0	0.0		7.077744899899699	0.03328849992249161
1	2.9336054999148473	stim	25		2	unambiguous	right	preferred	66.0	0.0		7.11103339982219	0.03322840004693717
1	2.9668338999617845	stim	26		2	unambiguous	right	preferred	66.0	0.0		7.144261799869128	0.03402629995252937
1	3.000860199914314	stim	27		2	unambiguous	right	preferred	66.0	0.0		7.178288099821657	0.03378490009345114
1	3.034645100007765	stim	28		2	unambiguous	right	preferred	66.0	0.0		7.212072999915108	0.03337909991387278
1	3.0680241999216378	stim	29		2	unambiguous	right	preferred	66.0	0.0		7.245452099828981	0.03346910001710057
1	3.1014932999387383	stim	30		2	unambiguous	right	preferred	66.0	0.0		7.278921199846081	0.03333420003764331
1	3.1348274999763817	stim	31		2	unambiguous	right	preferred	66.0	0.0		7.312255399883725	0.03350959997624159
1	3.1683370999526232	stim	32		2	unambiguous	right	preferred	66.0	0.0		7.345764999859966	0.03376869997009635
1	3.2021057999227196	stim	33		2	unambiguous	right	preferred	66.0	0.0		7.379533699830063	0.03369330009445548
1	3.235799100017175	stim	34		2	unambiguous	right	preferred	66.0	0.0		7.413226999924518	0.03515189990866929
1	3.2709509999258444	stim	35		2	unambiguous	right	preferred	66.0	0.0		7.4483788998331875	0.03313019999768585
1	3.30408119992353	stim	36		2	unambiguous	right	preferred	66.0	0.0		7.481509099830873	0.033406700007617474
1	3.3374878999311477	stim	37		2	unambiguous	right	preferred	66.0	0.0		7.514915799838491	0.033334000036120415
1	3.370821899967268	stim	38		2	unambiguous	right	preferred	66.0	0.0		7.548249799874611	0.03347929997835308
1	3.404301199945621	stim	39		2	unambiguous	right	preferred	66.0	0.0		7.581729099852964	0.049967900034971535
1	3.4542690999805927	stim	40		2	unambiguous	right	preferred	66.0	0.0		7.631696999887936	0.034006500034593046
1	3.4882756000151858	stim	41		2	unambiguous	right	preferred	66.0	0.0		7.665703499922529	0.0324960999423638
1	3.5207716999575496	stim	42		2	unambiguous	right	preferred	66.0	0.0		7.698199599864893	0.033412500051781535
1	3.554184200009331	stim	43		2	unambiguous	right	preferred	66.0	0.0		7.731612099916674	0.033262599958106875
1	3.587446799967438	stim	44		2	unambiguous	right	preferred	66.0	0.0		7.764874699874781	0.03384589997585863
1	3.6212926999432966	stim	45		2	unambiguous	right	preferred	66.0	0.0		7.79872059985064	0.033338500070385635
1	3.6546312000136822	stim	46		2	unambiguous	right	preferred	66.0	0.0		7.832059099921025	0.033311799983493984
1	3.6879429999971762	stim	47		2	unambiguous	right	preferred	66.0	0.0		7.865370899904519	0.03391260001808405
1	3.7218556000152603	stim	48		2	unambiguous	right	preferred	66.0	0.0		7.899283499922603	0.03359819995239377
1	3.755453799967654	stim	49		2	unambiguous	right	preferred	66.0	0.0		7.932881699874997	0.050233099958859384
1	3.8056868999265134	stim	50		2	unambiguous	right	preferred	66.0	0.0		7.9831147998338565	0.03477390005718917
1	3.8404607999837026	stim	51		2	unambiguous	right	preferred	66.0	0.0		8.017888699891046	0.03188140003476292
1	3.8723422000184655	stim	52		2	unambiguous	right	preferred	66.0	0.0		8.049770099925809	0.03328809991944581
1	3.9056302999379113	stim	53		2	unambiguous	right	preferred	66.0	0.0		8.083058199845254	0.03356840007472783
1	3.939198700012639	stim	54		2	unambiguous	right	preferred	66.0	0.0		8.116626599919982	0.033599099959246814
1	3.972797799971886	stim	55		2	unambiguous	right	preferred	66.0	0.0		8.150225699879229	0.04990920005366206
1	4.022707000025548	stim	56		2	unambiguous	right	preferred	66.0	0.0		8.200134899932891	0.033449299982748926
1	4.056156300008297	stim	57		2	unambiguous	right	preferred	66.0	0.0		8.23358419991564	0.033683400019071996
1	4.089839700027369	stim	58		2	unambiguous	right	preferred	66.0	0.0		8.267267599934712	0.03310599992983043
1	4.122945699957199	stim	59		2	unambiguous	right	preferred	66.0	0.0		8.300373599864542	0.03350829996634275
1	4.156453999923542	stim	60		2	unambiguous	right	preferred	66.0	0.0		8.333881899830885	0.03344850009307265
1	4.189902500016615	stim	61		2	unambiguous	right	preferred	66.0	0.0		8.367330399923958	0.033139599952846766
1	4.223042099969462	stim	62		2	unambiguous	right	preferred	66.0	0.0		8.400469999876805	0.03338799998164177
1	4.256430099951103	stim	63		2	unambiguous	right	preferred	66.0	0.0		8.433857999858446	0.033250999986194074
1	4.289681099937297	stim	64		2	unambiguous	right	preferred	66.0	0.0		8.46710899984464	0.03334369999356568
1	4.323024799930863	stim	65		2	unambiguous	right	preferred	66.0	0.0		8.500452699838206	0.03335829998832196
2	4.356383099919185	stim	0		2	unambiguous	left	preferred	70.0	66.0		8.533810999826528	0.03327500005252659
2	4.389658099971712	stim	1		2	unambiguous	left	preferred	70.0	66.0		8.567085999879055	0.033603399991989136
2	4.423261499963701	stim	2		2	unambiguous	left	preferred	70.0	66.0		8.600689399871044	0.03409329999703914
2	4.45735479996074	stim	3		2	unambiguous	left	preferred	70.0	66.0		8.634782699868083	0.033204999985173345
2	4.490559799945913	stim	4		2	unambiguous	left	preferred	70.0	66.0		8.667987699853256	0.03334349999204278
2	4.523903299937956	stim	5		2	unambiguous	left	preferred	70.0	66.0		8.7013311998453	0.033326299977488816
2	4.557229599915445	stim	6		2	unambiguous	left	preferred	70.0	66.0		8.734657499822788	0.03331880003679544
2	4.59054839995224	stim	7		2	unambiguous	left	preferred	70.0	66.0		8.767976299859583	0.03335420007351786
2	4.623902600025758	stim	8		2	unambiguous	left	preferred	70.0	66.0		8.801330499933101	0.033421400003135204
2	4.657324000028893	stim	9		2	unambiguous	left	preferred	70.0	66.0		8.834751899936236	0.03365269990172237
2	4.690976699930616	stim	10		2	unambiguous	left	preferred	70.0	66.0		8.868404599837959	0.033344299998134375
2	4.72432099992875	stim	11		2	unambiguous	left	preferred	70.0	66.0		8.901748899836093	0.03344020002987236
2	4.7577611999586225	stim	12		2	unambiguous	left	preferred	70.0	66.0		8.935189099865966	0.033951399964280427
2	4.791712599922903	stim	13		2	unambiguous	left	preferred	70.0	66.0		8.969140499830246	0.03334040008485317
2	4.825053000007756	stim	14		2	unambiguous	left	preferred	70.0	66.0		9.0024808999151	0.03410639998037368
2	4.85915939998813	stim	15		2	unambiguous	left	preferred	70.0	66.0		9.036587299895473	0.03305450000334531
2	4.892213899991475	stim	16		2	unambiguous	left	preferred	70.0	66.0		9.069641799898818	0.033262699958868325
2	4.925476599950343	stim	17		2	unambiguous	left	preferred	70.0	66.0		9.102904499857686	0.03336250002030283
2	4.958839099970646	stim	18		2	unambiguous	left	preferred	70.0	66.0		9.13626699987799	0.03332429996225983
2	4.992163399932906	stim	19		2	unambiguous	left	preferred	70.0	66.0		9.16959129984025	0.03331420000176877
2	5.025477599934675	stim	20		2	unambiguous	left	preferred	70.0	66.0		9.202905499842018	0.033565300051122904
2	5.059042899985798	stim	21		2	unambiguous	left	preferred	70.0	66.0		9.23647079989314	0.033408200019039214
2	5.092451100004837	stim	22		2	unambiguous	left	preferred	70.0	66.0		9.26987899991218	0.03333210002165288
2	5.12578320002649	stim	23		2	unambiguous	left	preferred	70.0	66.0		9.303211099933833	0.03330639994237572
2	5.1590895999688655	stim	24		2	unambiguous	left	preferred	70.0	66.0		9.336517499876209	0.03357209998648614
2	5.192661699955352	stim	25		2	unambiguous	left	preferred	70.0	66.0		9.370089599862695	0.03375419997610152
2	5.226415899931453	stim	26		2	unambiguous	left	preferred	70.0	66.0		9.403843799838796	0.03316700004506856
2	5.259582899976522	stim	27		2	unambiguous	left	preferred	70.0	66.0		9.437010799883865	0.033354699960909784
2	5.2929375999374315	stim	28		2	unambiguous	left	preferred	70.0	66.0		9.470365499844775	0.03337800002191216
2	5.326315599959344	stim	29		2	unambiguous	left	preferred	70.0	66.0		9.503743499866687	0.033317800029180944
2	5.359633399988525	stim	30		2	unambiguous	left	preferred	70.0	66.0		9.537061299895868	0.03300599998328835
2	5.392639399971813	stim	31		2	unambiguous	left	preferred	70.0	66.0		9.570067299879156	0.03336170001421124
2	5.426001099986024	stim	32		2	unambiguous	left	preferred	70.0	66.0		9.603428999893367	0.03334239998366684
2	5.459343499969691	stim	33		2	unambiguous	left	preferred	70.0	66.0		9.636771399877034	0.03382360003888607
2	5.493167100008577	stim	34		2	unambiguous	left	preferred	70.0	66.0		9.67059499991592	0.033280699979513884
2	5.526447799988091	stim	35		2	unambiguous	left	preferred	70.0	66.0		9.703875699895434	0.03294609999284148
2	5.5593938999809325	stim	36		2	unambiguous	left	preferred	70.0	66.0		9.736821799888276	0.03369119996204972
2	5.593085099942982	stim	37		2	unambiguous	left	preferred	70.0	66.0		9.770512999850325	0.03335709997918457
2	5.626442199922167	stim	38		2	unambiguous	left	preferred	70.0	66.0		9.80387009982951	0.03362490003928542
2	5.660067099961452	stim	39		2	unambiguous	left	preferred	70.0	66.0		9.837494999868795	0.03315090003889054
2	5.693218000000343	stim	40		2	unambiguous	left	preferred	70.0	66.0		9.870645899907686	0.03333769994787872
2	5.7265556999482214	stim	41		2	unambiguous	left	preferred	70.0	66.0		9.903983599855565	0.03350949997548014
2	5.760065199923702	stim	42		2	unambiguous	left	preferred	70.0	66.0		9.937493099831045	0.03335130005143583
2	5.793416499975137	stim	43		2	unambiguous	left	preferred	70.0	66.0		9.97084439988248	0.03355819999706
2	5.826974699972197	stim	44		2	unambiguous	left	preferred	70.0	66.0		10.00440259987954	0.03327210003044456
2	5.860246800002642	stim	45		2	unambiguous	left	preferred	70.0	66.0		10.037674699909985	0.03371959994547069
2	5.893966399948113	stim	46		2	unambiguous	left	preferred	70.0	66.0		10.071394299855456	0.03359420003835112
2	5.927560599986464	stim	47		2	unambiguous	left	preferred	70.0	66.0		10.104988499893807	0.032972099957987666
2	5.9605326999444515	stim	48		2	unambiguous	left	preferred	70.0	66.0		10.137960599851795	0.033580100047402084
2	5.9941127999918535	stim	49		2	unambiguous	left	preferred	70.0	66.0		10.171540699899197	0.03336999996099621
2	6.02748279995285	stim	50		2	unambiguous	left	preferred	70.0	66.0		10.204910699860193	0.033717600046657026
2	6.061200399999507	stim	51		2	unambiguous	left	preferred	70.0	66.0		10.23862829990685	0.03341719997115433
2	6.094617599970661	stim	52		2	unambiguous	left	preferred	70.0	66.0		10.272045499878004	0.033459599944762886
2	6.128077199915424	stim	53		2	unambiguous	left	preferred	70.0	66.0		10.305505099822767	0.033471700036898255
2	6.161548899952322	stim	54		2	unambiguous	left	preferred	70.0	66.0		10.338976799859665	0.03330100001767278
2	6.194849899969995	stim	55		2	unambiguous	left	preferred	70.0	66.0		10.372277799877338	0.03410609997808933
2	6.228955999948084	stim	56		2	unambiguous	left	preferred	70.0	66.0		10.406383899855427	0.033322100061923265
2	6.262278100010008	stim	57		2	unambiguous	left	preferred	70.0	66.0		10.43970599991735	0.033495199983008206
2	6.295773299993016	stim	58		2	unambiguous	left	preferred	70.0	66.0		10.473201199900359	0.03368809993844479
2	6.329461399931461	stim	59		2	unambiguous	left	preferred	70.0	66.0		10.506889299838804	0.03407719999086112
2	6.363538599922322	stim	60		2	unambiguous	left	preferred	70.0	66.0		10.540966499829665	0.0332551000174135
2	6.396793699939735	stim	61		2	unambiguous	left	preferred	70.0	66.0		10.574221599847078	0.033873300068080425
2	6.430667000007816	stim	62		2	unambiguous	left	preferred	70.0	66.0		10.608094899915159	0.03326049994211644
2	6.463927499949932	stim	63		2	unambiguous	left	preferred	70.0	66.0		10.641355399857275	0.03423520002979785
2	6.49816269997973	stim	64		2	unambiguous	left	preferred	70.0	66.0		10.675590599887073	0.033690799959003925
2	6.531853499938734	stim	65		2	unambiguous	left	preferred	70.0	66.0		10.709281399846077	0.033639200031757355
2	6.565492699970491	stim	66		2	unambiguous	left	preferred	70.0	66.0		10.742920599877834	0.033474600058980286
2	6.5989673000294715	stim	67		2	unambiguous	left	preferred	70.0	66.0		10.776395199936815	0.0332778999581933
2	6.632245199987665	stim	68		2	unambiguous	left	preferred	70.0	66.0		10.809673099895008	0.03354309999849647
2	6.665788299986161	stim	69		2	unambiguous	left	preferred	70.0	66.0		10.843216199893504	0.03363089996855706
3	6.699419199954718	stim	0		2	unambiguous	right	preferred	66.0	136.0		10.876847099862061	0.03306950000114739
3	6.732488699955866	stim	1		2	unambiguous	right	preferred	66.0	136.0		10.909916599863209	0.03367530007380992
3	6.766164000029676	stim	2		2	unambiguous	right	preferred	66.0	136.0		10.943591899937019	0.03346619999501854
3	6.799630200024694	stim	3		2	unambiguous	right	preferred	66.0	136.0		10.977058099932037	0.03343680000398308
3	6.833067000028677	stim	4		2	unambiguous	right	preferred	66.0	136.0		11.01049489993602	0.03331339999567717
3	6.8663804000243545	stim	5		2	unambiguous	right	preferred	66.0	136.0		11.043808299931698	0.0336866999277845
3	6.900067099952139	stim	6		2	unambiguous	right	preferred	66.0	136.0		11.077494999859482	0.0334335999796167
3	6.933500699931756	stim	7		2	unambiguous	right	preferred	66.0	136.0		11.110928599839099	0.033384500071406364
3	6.966885200003162	stim	8		2	unambiguous	right	preferred	66.0	136.0		11.144313099910505	0.03359509992878884
3	7.000480299931951	stim	9		2	unambiguous	right	preferred	66.0	136.0		11.177908199839294	0.03319390001706779
3	7.033674199949019	stim	10		2	unambiguous	right	preferred	66.0	136.0		11.211102099856362	0.03353040001820773
3	7.067204599967226	stim	11		2	unambiguous	right	preferred	66.0	136.0		11.24463249987457	0.033545900019817054
3	7.100750499987043	stim	12		2	unambiguous	right	preferred	66.0	136.0		11.278178399894387	0.03363730001728982
3	7.134387800004333	stim	13		2	unambiguous	right	preferred	66.0	136.0		11.311815699911676	0.03304959996603429
3	7.1674373999703676	stim	14		2	unambiguous	right	preferred	66.0	136.0		11.34486529987771	0.033582599950022995
3	7.2010199999203905	stim	15		2	unambiguous	right	preferred	66.0	136.0		11.378447899827734	0.033858500071801245
3	7.234878499992192	stim	16		2	unambiguous	right	preferred	66.0	136.0		11.412306399899535	0.05013769993092865
3	7.28501619992312	stim	17		2	unambiguous	right	preferred	66.0	136.0		11.462444099830464	0.03348149999510497
3	7.318497699918225	stim	18		2	unambiguous	right	preferred	66.0	136.0		11.495925599825568	0.03290350001771003
3	7.351401199935935	stim	19		2	unambiguous	right	preferred	66.0	136.0		11.528829099843279	0.03328279999550432
3	7.38468399993144	stim	20		2	unambiguous	right	preferred	66.0	136.0		11.562111899838783	0.033450699993409216
3	7.418134699924849	stim	21		2	unambiguous	right	preferred	66.0	136.0		11.595562599832192	0.03341010003350675
3	7.451544799958356	stim	22		2	unambiguous	right	preferred	66.0	136.0		11.628972699865699	0.03354219999164343
3	7.485086999949999	stim	23		2	unambiguous	right	preferred	66.0	136.0		11.662514899857342	0.03333470004145056
3	7.51842169999145	stim	24		2	unambiguous	right	preferred	66.0	136.0		11.695849599898793	0.03346009994857013
3	7.55188179994002	stim	25		2	unambiguous	right	preferred	66.0	136.0		11.729309699847363	0.03349890001118183
3	7.585380699951202	stim	26		2	unambiguous	right	preferred	66.0	136.0		11.762808599858545	0.03341859998181462
3	7.618799299933016	stim	27		2	unambiguous	right	preferred	66.0	136.0		11.79622719984036	0.033671600045636296
3	7.652470899978653	stim	28		2	unambiguous	right	preferred	66.0	136.0		11.829898799885996	0.03329629998188466
3	7.685767199960537	stim	29		2	unambiguous	right	preferred	66.0	136.0		11.86319509986788	0.03328990004956722
3	7.7190571000101045	stim	30		2	unambiguous	right	preferred	66.0	136.0		11.896484999917448	0.03502339997794479
3	7.754080499988049	stim	31		2	unambiguous	right	preferred	66.0	136.0		11.931508399895392	0.0332044999813661
3	7.787284999969415	stim	32		2	unambiguous	right	preferred	66.0	136.0		11.964712899876758	0.03341779997572303
3	7.820702799945138	stim	33		2	unambiguous	right	preferred	66.0	136.0		11.998130699852481	0.03329749999102205
3	7.8540002999361604	stim	34		2	unambiguous	right	preferred	66.0	136.0		12.031428199843504	0.033345700008794665
3	7.887345999944955	stim	35		2	unambiguous	right	preferred	66.0	136.0		12.064773899852298	0.03334319998975843
3	7.9206891999347135	stim	36		2	unambiguous	right	preferred	66.0	136.0		12.098117099842057	0.03338530007749796
3	7.9540745000122115	stim	37		2	unambiguous	right	preferred	66.0	136.0		12.131502399919555	0.033261299948208034
3	7.9873357999604195	stim	38		2	unambiguous	right	preferred	66.0	136.0		12.164763699867763	0.033342699985951185
3	8.02067849994637	stim	39		2	unambiguous	right	preferred	66.0	136.0		12.198106399853714	0.033329600002616644
3	8.054008099948987	stim	40		2	unambiguous	right	preferred	66.0	136.0		12.23143599985633	0.033283400000073016
3	8.08729149994906	stim	41		2	unambiguous	right	preferred	66.0	136.0		12.264719399856403	0.033446700079366565
3	8.120738200028427	stim	42		2	unambiguous	right	preferred	66.0	136.0		12.29816609993577	0.03323569998610765
3	8.153973900014535	stim	43		2	unambiguous	right	preferred	66.0	136.0		12.331401799921878	0.033798799966461957
3	8.187772699980997	stim	44		2	unambiguous	right	preferred	66.0	136.0		12.36520059988834	0.0333165000192821
3	8.221089200000279	stim	45		2	unambiguous	right	preferred	66.0	136.0		12.398517099907622	0.03320269996766001
3	8.254291899967939	stim	46		2	unambiguous	right	preferred	66.0	136.0		12.431719799875282	0.03408550005406141
3	8.288377400022	stim	47		2	unambiguous	right	preferred	66.0	136.0		12.465805299929343	0.032886400003917515
3	8.321263800025918	stim	48		2	unambiguous	right	preferred	66.0	136.0		12.49869169993326	0.03336379991378635
3	8.354627599939704	stim	49		2	unambiguous	right	preferred	66.0	136.0		12.532055499847047	0.033234699978493154
3	8.387862299918197	stim	50		2	unambiguous	right	preferred	66.0	136.0		12.56529019982554	0.03333590005058795
3	8.421198199968785	stim	51		2	unambiguous	right	preferred	66.0	136.0		12.598626099876128	0.03333610005211085
3	8.454534300020896	stim	52		2	unambiguous	right	preferred	66.0	136.0		12.631962199928239	0.033313299994915724
3	8.487847600015812	stim	53		2	unambiguous	right	preferred	66.0	136.0		12.665275499923155	0.033382699941284955
3	8.521230299957097	stim	54		2	unambiguous	right	preferred	66.0	136.0		12.69865819986444	0.03401279996614903
3	8.555243099923246	stim	55		2	unambiguous	right	preferred	66.0	136.0		12.732670999830589	0.0329510000301525
3	8.588194099953398	stim	56		2	unambiguous	right	preferred	66.0	136.0		12.765621999860741	0.03334189997985959
3	8.621535999933258	stim	57		2	unambiguous	right	preferred	66.0	136.0		12.7989638998406	0.034178500063717365
3	8.655714499996975	stim	58		2	unambiguous	right	preferred	66.0	136.0		12.833142399904318	0.033318899921141565
3	8.689033399918117	stim	59		2	unambiguous	right	preferred	66.0	136.0		12.86646129982546	0.034068800043314695
3	8.723102199961431	stim	60		2	unambiguous	right	preferred	66.0	136.0		12.900530099868774	0.034018300008028746
3	8.75712049996946	stim	61		2	unambiguous	right	preferred	66.0	136.0		12.934548399876803	0.03321789996698499
3	8.790338399936445	stim	62		2	unambiguous	right	preferred	66.0	136.0		12.967766299843788	0.03328119998332113
3	8.823619599919766	stim	63		2	unambiguous	right	preferred	66.0	136.0		13.00104749982711	0.03332300006877631
3	8.856942599988542	stim	64		2	unambiguous	right	preferred	66.0	136.0		13.034370499895886	0.033591600018553436
3	8.890534200007096	stim	65		2	unambiguous	right	preferred	66.0	136.0		13.067962099914439	0.03334480000194162
4	8.923879000009038	stim	0		2	unambiguous	left	preferred	71.0	12.0		13.10130689991638	0.03361299994867295
4	8.95749199995771	stim	1		2	unambiguous	left	preferred	71.0	12.0		13.134919899865054	0.03358060005120933
4	8.99107260000892	stim	2		2	unambiguous	left	preferred	71.0	12.0		13.168500499916263	0.033096899976953864
4	9.024169499985874	stim	3		2	unambiguous	left	preferred	71.0	12.0		13.201597399893217	0.03383800003211945
4	9.058007500017993	stim	4		2	unambiguous	left	preferred	71.0	12.0		13.235435399925336	0.03329299995675683
4	9.09130049997475	stim	5		2	unambiguous	left	preferred	71.0	12.0		13.268728399882093	0.03403099998831749
4	9.125331499963067	stim	6		2	unambiguous	left	preferred	71.0	12.0		13.30275939987041	0.03379110002424568
4	9.159122599987313	stim	7		2	unambiguous	left	preferred	71.0	12.0		13.336550499894656	0.033382499939762056
4	9.192505099927075	stim	8		2	unambiguous	left	preferred	71.0	12.0		13.369932999834418	0.033748700050637126
4	9.226253799977712	stim	9		2	unambiguous	left	preferred	71.0	12.0		13.403681699885055	0.03331840003374964
4	9.259572200011462	stim	10		2	unambiguous	left	preferred	71.0	12.0		13.437000099918805	0.03373479994479567
4	9.293306999956258	stim	11		2	unambiguous	left	preferred	71.0	12.0		13.4707348998636	0.03408280003350228
4	9.32738979998976	stim	12		2	unambiguous	left	preferred	71.0	12.0		13.504817699897103	0.03284270002041012
4	9.36023250001017	stim	13		2	unambiguous	left	preferred	71.0	12.0		13.537660399917513	0.03330639994237572
4	9.393538899952546	stim	14		2	unambiguous	left	preferred	71.0	12.0		13.570966799859889	0.03336560004390776
4	9.426904499996454	stim	15		2	unambiguous	left	preferred	71.0	12.0		13.604332399903797	0.03338189993519336
4	9.460286399931647	stim	16		2	unambiguous	left	preferred	71.0	12.0		13.63771429983899	0.03354490001220256
4	9.49383129994385	stim	17		2	unambiguous	left	preferred	71.0	12.0		13.671259199851193	0.03338240005541593
4	9.527213699999265	stim	18		2	unambiguous	left	preferred	71.0	12.0		13.704641599906608	0.03333629993721843
4	9.560549999936484	stim	19		2	unambiguous	left	preferred	71.0	12.0		13.737977899843827	0.033271900028921664
4	9.593821899965405	stim	20		2	unambiguous	left	preferred	71.0	12.0		13.771249799872749	0.03366620000451803
4	9.627488099969923	stim	21		2	unambiguous	left	preferred	71.0	12.0		13.804915999877267	0.03333160001784563
4	9.66081969998777	stim	22		2	unambiguous	left	preferred	71.0	12.0		13.838247599895112	0.03355529997497797
4	9.694374999962747	stim	23		2	unambiguous	left	preferred	71.0	12.0		13.87180289987009	0.03407110006082803
4	9.728446100023575	stim	24		2	unambiguous	left	preferred	71.0	12.0		13.905873999930918	0.03351629991084337
4	9.761962399934418	stim	25		2	unambiguous	left	preferred	71.0	12.0		13.939390299841762	0.03370979998726398
4	9.795672199921682	stim	26		2	unambiguous	left	preferred	71.0	12.0		13.973100099829026	0.033987500006332994
4	9.829659699928015	stim	27		2	unambiguous	left	preferred	71.0	12.0		14.007087599835359	0.03313140000682324
4	9.862791099934839	stim	28		2	unambiguous	left	preferred	71.0	12.0		14.040218999842182	0.033382800058461726
4	9.8961738999933	stim	29		2	unambiguous	left	preferred	71.0	12.0		14.073601799900644	0.033953299978747964
4	9.930127199972048	stim	30		2	unambiguous	left	preferred	71.0	12.0		14.107555099879391	0.03339400002732873
4	9.963521199999377	stim	31		2	unambiguous	left	preferred	71.0	12.0		14.14094909990672	0.03378069994505495
4	9.997301899944432	stim	32		2	unambiguous	left	preferred	71.0	12.0		14.174729799851775	0.033603399991989136
4	10.030905299936421	stim	33		2	unambiguous	left	preferred	71.0	12.0		14.208333199843764	0.033975500031374395
4	10.064880799967796	stim	34		2	unambiguous	left	preferred	71.0	12.0		14.242308699875139	0.03366019995883107
4	10.098540999926627	stim	35		2	unambiguous	left	preferred	71.0	12.0		14.27596889983397	0.03340100008063018
4	10.131942000007257	stim	36		2	unambiguous	left	preferred	71.0	12.0		14.3093698999146	0.03324359992984682
4	10.165185599937104	stim	37		2	unambiguous	left	preferred	71.0	12.0		14.342613499844447	0.033445000066421926
4	10.198630600003526	stim	38		2	unambiguous	left	preferred	71.0	12.0		14.376058499910869	0.033879099995829165
4	10.232509699999355	stim	39		2	unambiguous	left	preferred	71.0	12.0		14.409937599906698	0.0338543999241665
4	10.266364099923521	stim	40		2	unambiguous	left	preferred	71.0	12.0		14.443791999830864	0.03367590007837862
4	10.3000400000019	stim	41		2	unambiguous	left	preferred	71.0	12.0		14.477467899909243	0.033591900020837784
4	10.333631900022738	stim	42		2	unambiguous	left	preferred	71.0	12.0		14.51105979993008	0.03328449989203364
4	10.366916399914771	stim	43		2	unambiguous	left	preferred	71.0	12.0		14.544344299822114	0.033657100051641464
4	10.400573499966413	stim	44		2	unambiguous	left	preferred	71.0	12.0		14.578001399873756	0.033655700040981174
4	10.434229200007394	stim	45		2	unambiguous	left	preferred	71.0	12.0		14.611657099914737	0.03339949995279312
4	10.467628699960187	stim	46		2	unambiguous	left	preferred	71.0	12.0		14.64505659986753	0.0334104000357911
4	10.501039099995978	stim	47		2	unambiguous	left	preferred	71.0	12.0		14.678466999903321	0.033620800008066
4	10.534659900004044	stim	48		2	unambiguous	left	preferred	71.0	12.0		14.712087799911387	0.033267099992372096
4	10.567926999996416	stim	49		2	unambiguous	left	preferred	71.0	12.0		14.74535489990376	0.03343820001464337
4	10.60136520001106	stim	50		2	unambiguous	left	preferred	71.0	12.0		14.778793099918403	0.03343820001464337
4	10.634803400025703	stim	51		2	unambiguous	left	preferred	71.0	12.0		14.812231299933046	0.03345869993790984
4	10.668262099963613	stim	52		2	unambiguous	left	preferred	71.0	12.0		14.845689999870956	0.03332599997520447
4	10.701588099938817	stim	53		2	unambiguous	left	preferred	71.0	12.0		14.87901599984616	0.03346359997522086
4	10.735051699914038	stim	54		2	unambiguous	left	preferred	71.0	12.0		14.912479599821381	0.03352830000221729
4	10.768579999916255	stim	55		2	unambiguous	left	preferred	71.0	12.0		14.946007899823599	0.03533940005581826
4	10.803919399972074	stim	56		2	unambiguous	left	preferred	71.0	12.0		14.981347299879417	0.0333364000543952
4	10.837255800026469	stim	57		2	unambiguous	left	preferred	71.0	12.0		15.014683699933812	0.03342509991489351
4	10.870680899941362	stim	58		2	unambiguous	left	preferred	71.0	12.0		15.048108799848706	0.033570999978110194
4	10.904251899919473	stim	59		2	unambiguous	left	preferred	71.0	12.0		15.081679799826816	0.033305900054983795
4	10.937557799974456	stim	60		2	unambiguous	left	preferred	71.0	12.0		15.1149856998818	0.03307270002551377
4	10.97063049999997	stim	61		2	unambiguous	left	preferred	71.0	12.0		15.148058399907313	0.033360500005073845
4	11.003991000005044	stim	62		2	unambiguous	left	preferred	71.0	12.0		15.181418899912387	0.03323229996021837
4	11.037223299965262	stim	63		2	unambiguous	left	preferred	71.0	12.0		15.214651199872606	0.03342059999704361
4	11.070643899962306	stim	64		2	unambiguous	left	preferred	71.0	12.0		15.24807179986965	0.033393300021998584
4	11.104037199984305	stim	65		2	unambiguous	left	preferred	71.0	12.0		15.281465099891648	0.033377000014297664
4	11.137414199998602	stim	66		2	unambiguous	left	preferred	71.0	12.0		15.314842099905945	0.033195799915120006
4	11.170609999913722	stim	67		2	unambiguous	left	preferred	71.0	12.0		15.348037899821065	0.03407820011489093
4	11.204688200028613	stim	68		2	unambiguous	left	preferred	71.0	12.0		15.382116099935956	0.03377279988490045
4	11.238460999913514	stim	69		2	unambiguous	left	preferred	71.0	12.0		15.415888899820857	0.03342230000998825
4	11.271883299923502	stim	70		2	unambiguous	left	preferred	71.0	12.0		15.449311199830845	0.03400290000718087
5	11.305886199930683	stim	0		2	unambiguous	right	preferred	69.0	83.0		15.483314099838026	0.049865600070916116
5	11.355751800001599	stim	1		2	unambiguous	right	preferred	69.0	83.0		15.533179699908942	0.05060550000052899
5	11.406357300002128	stim	2		2	unambiguous	right	preferred	69.0	83.0		15.583785199909471	0.05002079997211695
5	11.456378099974245	stim	3		2	unambiguous	right	preferred	69.0	83.0		15.633805999881588	0.03324420005083084
5	11.489622300025076	stim	4		2	unambiguous	right	preferred	69.0	83.0		15.667050199932419	0.05042289989069104
5	11.540045199915767	stim	5		2	unambiguous	right	preferred	69.0	83.0		15.71747309982311	0.05022910004481673
5	11.590274299960583	stim	6		2	unambiguous	right	preferred	69.0	83.0		15.767702199867927	0.03296440001577139
5	11.623238699976355	stim	7		2	unambiguous	right	preferred	69.0	83.0		15.800666599883698	0.0333051000488922
5	11.656543800025247	stim	8		2	unambiguous	right	preferred	69.0	83.0		15.83397169993259	0.03334909991826862
5	11.689892899943516	stim	9		2	unambiguous	right	preferred	69.0	83.0		15.867320799850859	0.03363399999216199
5	11.723526899935678	stim	10		2	unambiguous	right	preferred	69.0	83.0		15.90095479984302	0.033344299998134375
5	11.756871199933812	stim	11		2	unambiguous	right	preferred	69.0	83.0		15.934299099841155	0.03402500005904585
5	11.790896199992858	stim	12		2	unambiguous	right	preferred	69.0	83.0		15.968324099900201	0.03332259994931519
5	11.824218799942173	stim	13		2	unambiguous	right	preferred	69.0	83.0		16.001646699849516	0.033337200060486794
5	11.85755600000266	stim	14		2	unambiguous	right	preferred	69.0	83.0		16.034983899910003	0.033631499973125756
5	11.891187499975786	stim	15		2	unambiguous	right	preferred	69.0	83.0		16.06861539988313	0.033489499939605594
5	11.924676999915391	stim	16		2	unambiguous	right	preferred	69.0	83.0		16.102104899822734	0.03317640000022948
5	11.95785339991562	stim	17		2	unambiguous	right	preferred	69.0	83.0		16.135281299822964	0.033637800021097064
5	11.991491199936718	stim	18		2	unambiguous	right	preferred	69.0	83.0		16.16891909984406	0.03397630003746599
5	12.025467499974184	stim	19		2	unambiguous	right	preferred	69.0	83.0		16.202895399881527	0.03330050001386553
5	12.05876799998805	stim	20		2	unambiguous	right	preferred	69.0	83.0		16.236195899895392	0.03332719998434186
5	12.092095199972391	stim	21		2	unambiguous	right	preferred	69.0	83.0		16.269523099879734	0.03398379997815937
5	12.12607899995055	stim	22		2	unambiguous	right	preferred	69.0	83.0		16.303506899857894	0.032985800062306225
5	12.159064800012857	stim	23		2	unambiguous	right	preferred	69.0	83.0		16.3364926999202	0.03406589990481734
5	12.193130699917674	stim	24		2	unambiguous	right	preferred	69.0	83.0		16.370558599825017	0.03334030008409172
5	12.226471000001766	stim	25		2	unambiguous	right	preferred	69.0	83.0		16.40389889990911	0.033311799983493984
5	12.25978279998526	stim	26		2	unambiguous	right	preferred	69.0	83.0		16.437210699892603	0.033329400001093745
5	12.293112199986354	stim	27		2	unambiguous	right	preferred	69.0	83.0		16.470540099893697	0.033553099958226085
5	12.32666529994458	stim	28		2	unambiguous	right	preferred	69.0	83.0		16.504093199851923	0.03350400005001575
5	12.360169299994595	stim	29		2	unambiguous	right	preferred	69.0	83.0		16.53759719990194	0.03378009994048625
5	12.393949399935082	stim	30		2	unambiguous	right	preferred	69.0	83.0		16.571377299842425	0.03333630005363375
5	12.427285699988715	stim	31		2	unambiguous	right	preferred	69.0	83.0		16.60471359989606	0.03355499997269362
5	12.460840699961409	stim	32		2	unambiguous	right	preferred	69.0	83.0		16.638268599868752	0.033523599966429174
5	12.494364299927838	stim	33		2	unambiguous	right	preferred	69.0	83.0		16.67179219983518	0.03341650008223951
5	12.527780800010078	stim	34		2	unambiguous	right	preferred	69.0	83.0		16.70520869991742	0.03392269997857511
5	12.561703499988653	stim	35		2	unambiguous	right	preferred	69.0	83.0		16.739131399895996	0.03355259995441884
5	12.595256099943072	stim	36		2	unambiguous	right	preferred	69.0	83.0		16.772683999850415	0.03369920002296567
5	12.628955299966037	stim	37		2	unambiguous	right	preferred	69.0	83.0		16.80638319987338	0.033639300032518804
5	12.662594599998556	stim	38		2	unambiguous	right	preferred	69.0	83.0		16.8400224999059	0.033336499938741326
5	12.695931099937297	stim	39		2	unambiguous	right	preferred	69.0	83.0		16.87335899984464	0.03343680000398308
5	12.72936789994128	stim	40		2	unambiguous	right	preferred	69.0	83.0		16.906795799848624	0.03324550006072968
5	12.76261340000201	stim	41		2	unambiguous	right	preferred	69.0	83.0		16.940041299909353	0.034030299982987344
5	12.796643699984998	stim	42		2	unambiguous	right	preferred	69.0	83.0		16.97407159989234	0.03394170000683516
5	12.830585399991833	stim	43		2	unambiguous	right	preferred	69.0	83.0		17.008013299899176	0.03372409997973591
5	12.864309499971569	stim	44		2	unambiguous	right	preferred	69.0	83.0		17.04173739987891	0.03325350000523031
5	12.897562999976799	stim	45		2	unambiguous	right	preferred	69.0	83.0		17.074990899884142	0.03363499999977648
5	12.931197999976575	stim	46		2	unambiguous	right	preferred	69.0	83.0		17.10862589988392	0.03326009993907064
5	12.964458099915646	stim	47		2	unambiguous	right	preferred	69.0	83.0		17.14188599982299	0.03385920007713139
5	12.998317299992777	stim	48		2	unambiguous	right	preferred	69.0	83.0		17.17574519990012	0.03355819999706
5	13.031875499989837	stim	49		2	unambiguous	right	preferred	69.0	83.0		17.20930339989718	0.03357329999562353
5	13.065448799985461	stim	50		2	unambiguous	right	preferred	69.0	83.0		17.242876699892804	0.03331129997968674
5	13.098760099965148	stim	51		2	unambiguous	right	preferred	69.0	83.0		17.27618799987249	0.033400299958884716
5	13.132160399924032	stim	52		2	unambiguous	right	preferred	69.0	83.0		17.309588299831375	0.03370400005951524
5	13.165864399983548	stim	53		2	unambiguous	right	preferred	69.0	83.0		17.34329229989089	0.0336756999604404
5	13.199540099943988	stim	54		2	unambiguous	right	preferred	69.0	83.0		17.37696799985133	0.033039100002497435
5	13.232579199946485	stim	55		2	unambiguous	right	preferred	69.0	83.0		17.41000709985383	0.03327979997266084
5	13.265858999919146	stim	56		2	unambiguous	right	preferred	69.0	83.0		17.44328689982649	0.03378220007289201
5	13.299641199992038	stim	57		2	unambiguous	right	preferred	69.0	83.0		17.47706909989938	0.03349940001498908
5	13.333140600007027	stim	58		2	unambiguous	right	preferred	69.0	83.0		17.51056849991437	0.03334169997833669
5	13.366482299985364	stim	59		2	unambiguous	right	preferred	69.0	83.0		17.543910199892707	0.03340129996649921
5	13.399883599951863	stim	60		2	unambiguous	right	preferred	69.0	83.0		17.577311499859206	0.03362180001568049
5	13.433505399967544	stim	61		2	unambiguous	right	preferred	69.0	83.0		17.610933299874887	0.03342069999780506
5	13.466926099965349	stim	62		2	unambiguous	right	preferred	69.0	83.0		17.644353999872692	0.03351119998842478
5	13.500437299953774	stim	63		2	unambiguous	right	preferred	69.0	83.0		17.677865199861117	0.033412700053304434
5	13.533850000007078	stim	64		2	unambiguous	right	preferred	69.0	83.0		17.71127789991442	0.03309739998076111
5	13.56694739998784	stim	65		2	unambiguous	right	preferred	69.0	83.0		17.744375299895182	0.033742700004950166
5	13.60069009999279	stim	66		2	unambiguous	right	preferred	69.0	83.0		17.778117999900132	0.033437800011597574
5	13.634127900004387	stim	67		2	unambiguous	right	preferred	69.0	83.0		17.81155579991173	0.03329499997198582
5	13.667422899976373	stim	68		2	unambiguous	right	preferred	69.0	83.0		17.844850799883716	0.03366680000908673
6	13.70108969998546	stim	0		2	unambiguous	left	preferred	66.0	152.0		17.878517599892803	0.03344419994391501
6	13.734533899929374	stim	1		2	unambiguous	left	preferred	66.0	152.0		17.911961799836718	0.03349160007201135
6	13.768025500001386	stim	2		2	unambiguous	left	preferred	66.0	152.0		17.94545339990873	0.04979710001498461
6	13.81782260001637	stim	3		2	unambiguous	left	preferred	66.0	152.0		17.995250499923714	0.03339080000296235
6	13.851213400019333	stim	4		2	unambiguous	left	preferred	66.0	152.0		18.028641299926676	0.033467300003394485
6	13.884680700022727	stim	5		2	unambiguous	left	preferred	66.0	152.0		18.06210859993007	0.033445099950768054
6	13.918125799973495	stim	6		2	unambiguous	left	preferred	66.0	152.0		18.09555369988084	0.03352459997404367
6	13.951650399947539	stim	7		2	unambiguous	left	preferred	66.0	152.0		18.129078299854882	0.033355899970047176
6	13.985006299917586	stim	8		2	unambiguous	left	preferred	66.0	152.0		18.16243419982493	0.03340690000914037
6	14.018413199926727	stim	9		2	unambiguous	left	preferred	66.0	152.0		18.19584109983407	0.03347250004298985
6	14.051885699969716	stim	10		2	unambiguous	left	preferred	66.0	152.0		18.22931359987706	0.033461299957707524
6	14.085346999927424	stim	11		2	unambiguous	left	preferred	66.0	152.0		18.262774899834767	0.03332090005278587
6	14.11866789998021	stim	12		2	unambiguous	left	preferred	66.0	152.0		18.296095799887553	0.035017200047150254
6	14.15368510002736	stim	13		2	unambiguous	left	preferred	66.0	152.0		18.331112999934703	0.033457999932579696
6	14.18714309995994	stim	14		2	unambiguous	left	preferred	66.0	152.0		18.364570999867283	0.03351119998842478
6	14.220654299948364	stim	15		2	unambiguous	left	preferred	66.0	152.0		18.398082199855708	0.03321350004989654
6	14.253867799998261	stim	16		2	unambiguous	left	preferred	66.0	152.0		18.431295699905604	0.03330889996141195
6	14.287176699959673	stim	17		2	unambiguous	left	preferred	66.0	152.0		18.464604599867016	0.03344819997437298
6	14.320624899934046	stim	18		2	unambiguous	left	preferred	66.0	152.0		18.49805279984139	0.03318410005886108
6	14.353808999992907	stim	19		2	unambiguous	left	preferred	66.0	152.0		18.53123689990025	0.03333489992655814
6	14.387143899919465	stim	20		2	unambiguous	left	preferred	66.0	152.0		18.56457179982681	0.03334270010236651
6	14.420486600021832	stim	21		2	unambiguous	left	preferred	66.0	152.0		18.597914499929175	0.033327799988910556
6	14.453814400010742	stim	22		2	unambiguous	left	preferred	66.0	152.0		18.631242299918085	0.03373259992804378
6	14.487546999938786	stim	23		2	unambiguous	left	preferred	66.0	152.0		18.66497489984613	0.03381709998939186
6	14.521364099928178	stim	24		2	unambiguous	left	preferred	66.0	152.0		18.69879199983552	0.03342940006405115
6	14.554793499992229	stim	25		2	unambiguous	left	preferred	66.0	152.0		18.732221399899572	0.033516100025735795
6	14.588309600017965	stim	26		2	unambiguous	left	preferred	66.0	152.0		18.765737499925308	0.03395700000692159
6	14.622266600024886	stim	27		2	unambiguous	left	preferred	66.0	152.0		18.79969449993223	0.03334219998214394
6	14.65560880000703	stim	28		2	unambiguous	left	preferred	66.0	152.0		18.833036699914373	0.033329500001855195
6	14.688938300008886	stim	29		2	unambiguous	left	preferred	66.0	152.0		18.86636619991623	0.033544200006872416
6	14.722482500015758	stim	30		2	unambiguous	left	preferred	66.0	152.0		18.8999103999231	0.0331614000024274
6	14.755643900018185	stim	31		2	unambiguous	left	preferred	66.0	152.0		18.93307179992553	0.03333419992122799
6	14.788978099939413	stim	32		2	unambiguous	left	preferred	66.0	152.0		18.966405999846756	0.033302900032140315
6	14.822280999971554	stim	33		2	unambiguous	left	preferred	66.0	152.0		18.999708899878897	0.0333284999942407
6	14.855609499965794	stim	34		2	unambiguous	left	preferred	66.0	152.0		19.033037399873137	0.033634799998253584
6	14.889244299964048	stim	35		2	unambiguous	left	preferred	66.0	152.0		19.06667219987139	0.03339520003646612
6	14.922639500000514	stim	36		2	unambiguous	left	preferred	66.0	152.0		19.100067399907857	0.03329930000472814
6	14.955938800005242	stim	37		2	unambiguous	left	preferred	66.0	152.0		19.133366699912585	0.033651000005193055
6	14.989589800010435	stim	38		2	unambiguous	left	preferred	66.0	152.0		19.16701769991778	0.033618099987506866
6	15.023207899997942	stim	39		2	unambiguous	left	preferred	66.0	152.0		19.200635799905285	0.034332299954257905
6	15.0575401999522	stim	40		2	unambiguous	left	preferred	66.0	152.0		19.234968099859543	0.032748800003901124
6	15.090288999956101	stim	41		2	unambiguous	left	preferred	66.0	152.0		19.267716899863444	0.03329900000244379
6	15.123587999958545	stim	42		2	unambiguous	left	preferred	66.0	152.0		19.301015899865888	0.033428900060243905
6	15.157016900018789	stim	43		2	unambiguous	left	preferred	66.0	152.0		19.334444799926132	0.033254100009799004
6	15.190271000028588	stim	44		2	unambiguous	left	preferred	66.0	152.0		19.36769889993593	0.033616599976085126
6	15.223887600004673	stim	45		2	unambiguous	left	preferred	66.0	152.0		19.401315499912016	0.033317299908958375
6	15.257204899913631	stim	46		2	unambiguous	left	preferred	66.0	152.0		19.434632799820974	0.03342620003968477
6	15.290631099953316	stim	47		2	unambiguous	left	preferred	66.0	152.0		19.46805899986066	0.033413800061680377
6	15.324044900014997	stim	48		2	unambiguous	left	preferred	66.0	152.0		19.50147279992234	0.03321129991672933
6	15.357256199931726	stim	49		2	unambiguous	left	preferred	66.0	152.0		19.53468409983907	0.03377730003558099
6	15.391033499967307	stim	50		2	unambiguous	left	preferred	66.0	152.0		19.56846139987465	0.033156099962070584
6	15.424189599929377	stim	51		2	unambiguous	left	preferred	66.0	152.0		19.60161749983672	0.03330260002985597
6	15.457492199959233	stim	52		2	unambiguous	left	preferred	66.0	152.0		19.634920099866576	0.03334770002402365
6	15.490839899983257	stim	53		2	unambiguous	left	preferred	66.0	152.0		19.6682677998906	0.03425439994316548
6	15.525094299926423	stim	54		2	unambiguous	left	preferred	66.0	152.0		19.702522199833766	0.0333360000513494
6	15.558430299977772	stim	55		2	unambiguous	left	preferred	66.0	152.0		19.735858199885115	0.033160299994051456
6	15.591590599971823	stim	56		2	unambiguous	left	preferred	66.0	152.0		19.769018499879166	0.03415990003850311
6	15.625750500010327	stim	57		2	unambiguous	left	preferred	66.0	152.0		19.80317839991767	0.033621300011873245
6	15.6593718000222	stim	58		2	unambiguous	left	preferred	66.0	152.0		19.836799699929543	0.03322939993813634
6	15.692601199960336	stim	59		2	unambiguous	left	preferred	66.0	152.0		19.87002909986768	0.03383390000090003
6	15.726435099961236	stim	60		2	unambiguous	left	preferred	66.0	152.0		19.90386299986858	0.03311399999074638
6	15.759549099951982	stim	61		2	unambiguous	left	preferred	66.0	152.0		19.936976999859326	0.03383740002755076
6	15.793386499979533	stim	62		2	unambiguous	left	preferred	66.0	152.0		19.970814399886876	0.0329865999519825
6	15.826373099931516	stim	63		2	unambiguous	left	preferred	66.0	152.0		20.00380099983886	0.03331369999796152
6	15.859686799929477	stim	64		2	unambiguous	left	preferred	66.0	152.0		20.03711469983682	0.03330320003442466
6	15.892989999963902	stim	65		2	unambiguous	left	preferred	66.0	152.0		20.070417899871245	0.03365220001433045
7	15.926642199978232	stim	0		2	unambiguous	right	preferred	70.0	28.0		20.104070099885575	0.03354930004570633
7	15.960191500023939	stim	1		2	unambiguous	right	preferred	70.0	28.0		20.137619399931282	0.03329619998112321
7	15.993487700005062	stim	2		2	unambiguous	right	preferred	70.0	28.0		20.170915599912405	0.033474599942564964
7	16.026962299947627	stim	3		2	unambiguous	right	preferred	70.0	28.0		20.20439019985497	0.033385900082066655
7	16.060348200029694	stim	4		2	unambiguous	right	preferred	70.0	28.0		20.237776099937037	0.03330819995608181
7	16.093656399985775	stim	5		2	unambiguous	right	preferred	70.0	28.0		20.27108429989312	0.03331119997892529
7	16.1269675999647	stim	6		2	unambiguous	right	preferred	70.0	28.0		20.304395499872044	0.03334750002250075
7	16.1603150999872	stim	7		2	unambiguous	right	preferred	70.0	28.0		20.337742999894544	0.03340099996421486
7	16.193716099951416	stim	8		2	unambiguous	right	preferred	70.0	28.0		20.37114399985876	0.033478799974545836
7	16.227194899925962	stim	9		2	unambiguous	right	preferred	70.0	28.0		20.404622799833305	0.033939899993129075
7	16.26113479991909	stim	10		2	unambiguous	right	preferred	70.0	28.0		20.438562699826434	0.033298099995590746
7	16.294432899914682	stim	11		2	unambiguous	right	preferred	70.0	28.0		20.471860799822025	0.03351070010103285
7	16.327943600015715	stim	12		2	unambiguous	right	preferred	70.0	28.0		20.505371499923058	0.03345129999797791
7	16.361394900013693	stim	13		2	unambiguous	right	preferred	70.0	28.0		20.538822799921036	0.03340949991252273
7	16.394804399926215	stim	14		2	unambiguous	right	preferred	70.0	28.0		20.57223229983356	0.03374390001408756
7	16.428548299940303	stim	15		2	unambiguous	right	preferred	70.0	28.0		20.605976199847646	0.033312999992631376
7	16.461861299932934	stim	16		2	unambiguous	right	preferred	70.0	28.0		20.639289199840277	0.033344299998134375
7	16.49520559993107	stim	17		2	unambiguous	right	preferred	70.0	28.0		20.672633499838412	0.03333420003764331
7	16.528539799968712	stim	18		2	unambiguous	right	preferred	70.0	28.0		20.705967699876055	0.033542599994689226
7	16.5620823999634	stim	19		2	unambiguous	right	preferred	70.0	28.0		20.739510299870744	0.0333907000022009
7	16.595473099965602	stim	20		2	unambiguous	right	preferred	70.0	28.0		20.772900999872945	0.03400139999575913
7	16.62947449996136	stim	21		2	unambiguous	right	preferred	70.0	28.0		20.806902399868704	0.03390609996858984
7	16.66338059992995	stim	22		2	unambiguous	right	preferred	70.0	28.0		20.840808499837294	0.03398360009305179
7	16.697364200023003	stim	23		2	unambiguous	right	preferred	70.0	28.0		20.874792099930346	0.033293699962086976
7	16.73065789998509	stim	24		2	unambiguous	right	preferred	70.0	28.0		20.908085799892433	0.03389129997231066
7	16.7645491999574	stim	25		2	unambiguous	right	preferred	70.0	28.0		20.941977099864744	0.0333169000223279
7	16.79786609997973	stim	26		2	unambiguous	right	preferred	70.0	28.0		20.97529399988707	0.03355409996584058
7	16.83142019994557	stim	27		2	unambiguous	right	preferred	70.0	28.0		21.008848099852912	0.033430300070904195
7	16.864850500016473	stim	28		2	unambiguous	right	preferred	70.0	28.0		21.042278399923816	0.033308499958366156
7	16.89815899997484	stim	29		2	unambiguous	right	preferred	70.0	28.0		21.075586899882182	0.033551499946042895
7	16.931710499920882	stim	30		2	unambiguous	right	preferred	70.0	28.0		21.109138399828225	0.03346850001253188
7	16.965178999933414	stim	31		2	unambiguous	right	preferred	70.0	28.0		21.142606899840757	0.03351400000974536
7	16.99869299994316	stim	32		2	unambiguous	right	preferred	70.0	28.0		21.176120899850503	0.033007699996232986
7	17.031700699939393	stim	33		2	unambiguous	right	preferred	70.0	28.0		21.209128599846736	0.03378910000901669
7	17.06548979994841	stim	34		2	unambiguous	right	preferred	70.0	28.0		21.242917699855752	0.033313199994154274
7	17.098802999942563	stim	35		2	unambiguous	right	preferred	70.0	28.0		21.276230899849907	0.033356099971570075
7	17.132159099914134	stim	36		2	unambiguous	right	preferred	70.0	28.0		21.309586999821477	0.03329600009601563
7	17.16545510001015	stim	37		2	unambiguous	right	preferred	70.0	28.0		21.342882999917492	0.03386739990673959
7	17.19932249991689	stim	38		2	unambiguous	right	preferred	70.0	28.0		21.376750399824232	0.033471800037659705
7	17.23279429995455	stim	39		2	unambiguous	right	preferred	70.0	28.0		21.41022219986189	0.033360700006596744
7	17.266154999961145	stim	40		2	unambiguous	right	preferred	70.0	28.0		21.44358289986849	0.03356989996973425
7	17.29972489993088	stim	41		2	unambiguous	right	preferred	70.0	28.0		21.477152799838223	0.033219900098629296
7	17.33294480002951	stim	42		2	unambiguous	right	preferred	70.0	28.0		21.510372699936852	0.033319099922664464
7	17.366263899952173	stim	43		2	unambiguous	right	preferred	70.0	28.0		21.543691799859516	0.03370260004885495
7	17.399966500001028	stim	44		2	unambiguous	right	preferred	70.0	28.0		21.57739439990837	0.03341859998181462
7	17.433385099982843	stim	45		2	unambiguous	right	preferred	70.0	28.0		21.610812999890186	0.03347379993647337
7	17.466858899919316	stim	46		2	unambiguous	right	preferred	70.0	28.0		21.64428679982666	0.03341190004721284
7	17.50027079996653	stim	47		2	unambiguous	right	preferred	70.0	28.0		21.677698699873872	0.03349279996473342
7	17.533763599931262	stim	48		2	unambiguous	right	preferred	70.0	28.0		21.711191499838606	0.03341160004492849
7	17.56717519997619	stim	49		2	unambiguous	right	preferred	70.0	28.0		21.744603099883534	0.033553199958987534
7	17.60072839993518	stim	50		2	unambiguous	right	preferred	70.0	28.0		21.77815629984252	0.033379900036379695
7	17.634108299971558	stim	51		2	unambiguous	right	preferred	70.0	28.0		21.8115361998789	0.03361130005214363
7	17.667719600023702	stim	52		2	unambiguous	right	preferred	70.0	28.0		21.845147499931045	0.033329600002616644
7	17.70104920002632	stim	53		2	unambiguous	right	preferred	70.0	28.0		21.87847709993366	0.03342949994839728
7	17.734478699974716	stim	54		2	unambiguous	right	preferred	70.0	28.0		21.91190659988206	0.033393300021998584
7	17.767871999996714	stim	55		2	unambiguous	right	preferred	70.0	28.0		21.945299899904057	0.033603599993512034
7	17.801475599990226	stim	56		2	unambiguous	right	preferred	70.0	28.0		21.97890349989757	0.0332977999933064
7	17.834773399983533	stim	57		2	unambiguous	right	preferred	70.0	28.0		22.012201299890876	0.03354239999316633
7	17.8683157999767	stim	58		2	unambiguous	right	preferred	70.0	28.0		22.045743699884042	0.033351699938066304
7	17.901667499914765	stim	59		2	unambiguous	right	preferred	70.0	28.0		22.07909539982211	0.03347540006507188
7	17.935142899979837	stim	60		2	unambiguous	right	preferred	70.0	28.0		22.11257079988718	0.03356450004503131
7	17.96870740002487	stim	61		2	unambiguous	right	preferred	70.0	28.0		22.14613529993221	0.03313749993685633
7	18.001844899961725	stim	62		2	unambiguous	right	preferred	70.0	28.0		22.179272799869068	0.03538530005607754
7	18.037230200017802	stim	63		2	unambiguous	right	preferred	70.0	28.0		22.214658099925146	0.033101200009696186
7	18.0703314000275	stim	64		2	unambiguous	right	preferred	70.0	28.0		22.24775929993484	0.033469799906015396
7	18.103801199933514	stim	65		2	unambiguous	right	preferred	70.0	28.0		22.281229099840857	0.033243500045500696
7	18.137044699979015	stim	66		2	unambiguous	right	preferred	70.0	28.0		22.314472599886358	0.03326189995277673
7	18.17030659993179	stim	67		2	unambiguous	right	preferred	70.0	28.0		22.347734499839135	0.03367220005020499
7	18.203978799981996	stim	68		2	unambiguous	right	preferred	70.0	28.0		22.38140669988934	0.03311720001511276
7	18.23709599999711	stim	69		2	unambiguous	right	preferred	70.0	28.0		22.414523899904452	0.03331969992723316
8	18.270415699924342	stim	0		2	unambiguous	left	preferred	71.0	98.0		22.447843599831685	0.03377179999370128
8	18.304187499918044	stim	1		2	unambiguous	left	preferred	71.0	98.0		22.481615399825387	0.03373790008481592
8	18.33792540000286	stim	2		2	unambiguous	left	preferred	71.0	98.0		22.515353299910203	0.032569099916145205
8	18.370494499919005	stim	3		2	unambiguous	left	preferred	71.0	98.0		22.547922399826348	0.033806700026616454
8	18.40430119994562	stim	4		2	unambiguous	left	preferred	71.0	98.0		22.581729099852964	0.03332240006420761
8	18.43762360000983	stim	5		2	unambiguous	left	preferred	71.0	98.0		22.615051499917172	0.03330459992866963
8	18.4709281999385	stim	6		2	unambiguous	left	preferred	71.0	98.0		22.64835609984584	0.034043600084260106
8	18.50497180002276	stim	7		2	unambiguous	left	preferred	71.0	98.0		22.6823996999301	0.033349899924360216
8	18.53832169994712	stim	8		2	unambiguous	left	preferred	71.0	98.0		22.715749599854462	0.03356850007548928
8	18.571890200022608	stim	9		2	unambiguous	left	preferred	71.0	98.0		22.74931809992995	0.033345699892379344
8	18.605235899914987	stim	10		2	unambiguous	left	preferred	71.0	98.0		22.78266379982233	0.03335390007123351
8	18.63858979998622	stim	11		2	unambiguous	left	preferred	71.0	98.0		22.816017699893564	0.03354840003885329
8	18.672138200025074	stim	12		2	unambiguous	left	preferred	71.0	98.0		22.849566099932417	0.033994599943980575
8	18.706132799969055	stim	13		2	unambiguous	left	preferred	71.0	98.0		22.883560699876398	0.03328309999778867
8	18.739415899966843	stim	14		2	unambiguous	left	preferred	71.0	98.0		22.916843799874187	0.03358759998809546
8	18.77300349995494	stim	15		2	unambiguous	left	preferred	71.0	98.0		22.950431399862282	0.033682300010696054
8	18.806685799965635	stim	16		2	unambiguous	left	preferred	71.0	98.0		22.984113699872978	0.03369139996357262
8	18.840377199929208	stim	17		2	unambiguous	left	preferred	71.0	98.0		23.01780509983655	0.03336860006675124
8	18.87374579999596	stim	18		2	unambiguous	left	preferred	71.0	98.0		23.051173699903302	0.03399879997596145
8	18.90774459997192	stim	19		2	unambiguous	left	preferred	71.0	98.0		23.085172499879263	0.03331700002308935
8	18.94106159999501	stim	20		2	unambiguous	left	preferred	71.0	98.0		23.118489499902353	0.03334830002859235
8	18.974409900023602	stim	21		2	unambiguous	left	preferred	71.0	98.0		23.151837799930945	0.033499899902381
8	19.007909799925983	stim	22		2	unambiguous	left	preferred	71.0	98.0		23.185337699833326	0.03348109999205917
8	19.041390899918042	stim	23		2	unambiguous	left	preferred	71.0	98.0		23.218818799825385	0.03338090004399419
8	19.074771799962036	stim	24		2	unambiguous	left	preferred	71.0	98.0		23.25219969986938	0.03330929996445775
8	19.108081099926494	stim	25		2	unambiguous	left	preferred	71.0	98.0		23.285508999833837	0.033640800043940544
8	19.141721899970435	stim	26		2	unambiguous	left	preferred	71.0	98.0		23.319149799877778	0.03333739994559437
8	19.17505929991603	stim	27		2	unambiguous	left	preferred	71.0	98.0		23.352487199823372	0.03333800006657839
8	19.208397299982607	stim	28		2	unambiguous	left	preferred	71.0	98.0		23.38582519988995	0.03336580004543066
8	19.241763100028038	stim	29		2	unambiguous	left	preferred	71.0	98.0		23.41919099993538	0.033720499952323735
8	19.27548359998036	stim	30		2	unambiguous	left	preferred	71.0	98.0		23.452911499887705	0.03379090002272278
8	19.309274500003085	stim	31		2	unambiguous	left	preferred	71.0	98.0		23.486702399910428	0.03329189994838089
8	19.342566399951465	stim	32		2	unambiguous	left	preferred	71.0	98.0		23.51999429985881	0.03331890003755689
8	19.375885299989022	stim	33		2	unambiguous	left	preferred	71.0	98.0		23.553313199896365	0.03380460001062602
8	19.40968989999965	stim	34		2	unambiguous	left	preferred	71.0	98.0		23.58711779990699	0.033161900006234646
8	19.442851800005883	stim	35		2	unambiguous	left	preferred	71.0	98.0		23.620279699913226	0.033345800009556115
8	19.47619760001544	stim	36		2	unambiguous	left	preferred	71.0	98.0		23.653625499922782	0.0337378999684006
8	19.50993549998384	stim	37		2	unambiguous	left	preferred	71.0	98.0		23.687363399891183	0.03329479997046292
8	19.543230299954303	stim	38		2	unambiguous	left	preferred	71.0	98.0		23.720658199861646	0.033323500072583556
8	19.576553800026886	stim	39		2	unambiguous	left	preferred	71.0	98.0		23.75398169993423	0.033914399915374815
8	19.61046819994226	stim	40		2	unambiguous	left	preferred	71.0	98.0		23.787896099849604	0.033624400035478175
8	19.64409259997774	stim	41		2	unambiguous	left	preferred	71.0	98.0		23.821520499885082	0.03373409993946552
8	19.677826699917205	stim	42		2	unambiguous	left	preferred	71.0	98.0		23.855254599824548	0.03361920011229813
8	19.711445900029503	stim	43		2	unambiguous	left	preferred	71.0	98.0		23.888873799936846	0.033515999908559024
8	19.744961899938062	stim	44		2	unambiguous	left	preferred	71.0	98.0		23.922389799845405	0.03333730006124824
8	19.77829919999931	stim	45		2	unambiguous	left	preferred	71.0	98.0		23.955727099906653	0.033654999919235706
8	19.811954199918546	stim	46		2	unambiguous	left	preferred	71.0	98.0		23.98938209982589	0.03349729999899864
8	19.845451499917544	stim	47		2	unambiguous	left	preferred	71.0	98.0		24.022879399824888	0.0339633000548929
8	19.879414799972437	stim	48		2	unambiguous	left	preferred	71.0	98.0		24.05684269987978	0.033274600049480796
8	19.912689400021918	stim	49		2	unambiguous	left	preferred	71.0	98.0		24.09011729992926	0.033589500002563
8	19.94627890002448	stim	50		2	unambiguous	left	preferred	71.0	98.0		24.123706799931824	0.03328849992249161
8	19.979567399946973	stim	51		2	unambiguous	left	preferred	71.0	98.0		24.156995299854316	0.033862299984321
8	20.013429699931294	stim	52		2	unambiguous	left	preferred	71.0	98.0		24.190857599838637	0.03381639998406172
8	20.047246099915355	stim	53		2	unambiguous	left	preferred	71.0	98.0		24.2246739998227	0.03384899999946356
8	20.08109509991482	stim	54		2	unambiguous	left	preferred	71.0	98.0		24.258522999822162	0.033212300040759146
8	20.114307399955578	stim	55		2	unambiguous	left	preferred	71.0	98.0		24.29173529986292	0.03329769999254495
8	20.147605099948123	stim	56		2	unambiguous	left	preferred	71.0	98.0		24.325032999855466	0.0337689999723807
8	20.181374099920504	stim	57		2	unambiguous	left	preferred	71.0	98.0		24.358801999827847	0.033533800044097006
8	20.2149078999646	stim	58		2	unambiguous	left	preferred	71.0	98.0		24.392335799871944	0.03345900005660951
8	20.24836690002121	stim	59		2	unambiguous	left	preferred	71.0	98.0		24.425794799928553	0.033403499983251095
8	20.28177040000446	stim	60		2	unambiguous	left	preferred	71.0	98.0		24.459198299911804	0.03344239993020892
8	20.31521279993467	stim	61		2	unambiguous	left	preferred	71.0	98.0		24.492640699842013	0.033357599982991815
8	20.348570399917662	stim	62		2	unambiguous	left	preferred	71.0	98.0		24.525998299825005	0.033304500044323504
8	20.381874899961986	stim	63		2	unambiguous	left	preferred	71.0	98.0		24.55930279986933	0.03384559997357428
8	20.41572049993556	stim	64		2	unambiguous	left	preferred	71.0	98.0		24.593148399842903	0.03314070007763803
8	20.448861200013198	stim	65		2	unambiguous	left	preferred	71.0	98.0		24.62628909992054	0.033443199936300516
8	20.4823043999495	stim	66		2	unambiguous	left	preferred	71.0	98.0		24.65973229985684	0.033628800068981946
8	20.51593320001848	stim	67		2	unambiguous	left	preferred	71.0	98.0		24.693361099925824	0.03334500000346452
8	20.549278200021945	stim	68		2	unambiguous	left	preferred	71.0	98.0		24.726706099929288	0.033307099947705865
8	20.58258529996965	stim	69		2	unambiguous	left	preferred	71.0	98.0		24.760013199876994	0.033591500017791986
8	20.616176799987443	stim	70		2	unambiguous	left	preferred	71.0	98.0		24.793604699894786	0.0331919000018388
0	20.64936869998928	stim	0		120	break	break	preferred	1.0	0.0		24.826796599896625	2.0009334000060335
10	22.650302099995315	stim	0		2	ambiguous	ambiguous	preferred	600.0	30.0		26.827729999902658	0.0334024999756366
10	22.68370459997095	stim	1		2	ambiguous	ambiguous	preferred	600.0	30.0		26.861132499878295	0.03344300005119294
10	22.717147600022145	stim	2		2	ambiguous	ambiguous	preferred	600.0	30.0		26.894575499929488	0.03388129989616573
10	22.75102889991831	stim	3		2	ambiguous	ambiguous	preferred	600.0	30.0		26.928456799825653	0.03318560007028282
10	22.784214499988593	stim	4		2	ambiguous	ambiguous	preferred	600.0	30.0		26.961642399895936	0.03354939993005246
10	22.817763899918646	stim	5		2	ambiguous	ambiguous	preferred	600.0	30.0		26.99519179982599	0.033437800011597574
10	22.851201699930243	stim	6		2	ambiguous	ambiguous	preferred	600.0	30.0		27.028629599837586	0.0334299000678584
10	22.8846315999981	stim	7		2	ambiguous	ambiguous	preferred	600.0	30.0		27.062059499905445	0.0334337999811396
10	22.91806539997924	stim	8		2	ambiguous	ambiguous	preferred	600.0	30.0		27.095493299886584	0.03351290000136942
10	22.95157829998061	stim	9		2	ambiguous	ambiguous	preferred	600.0	30.0		27.129006199887954	0.03341719997115433
10	22.984995499951765	stim	10		2	ambiguous	ambiguous	preferred	600.0	30.0		27.162423399859108	0.03503679996356368
10	23.02003229991533	stim	11		2	ambiguous	ambiguous	preferred	600.0	30.0		27.19746019982267	0.03174910007510334
10	23.051781399990432	stim	12		2	ambiguous	ambiguous	preferred	600.0	30.0		27.229209299897775	0.0353025000076741
10	23.087083899998106	stim	13		2	ambiguous	ambiguous	preferred	600.0	30.0		27.26451179990545	0.033320299931801856
10	23.120404199929908	stim	14		2	ambiguous	ambiguous	preferred	600.0	30.0		27.29783209983725	0.03328120009973645
10	23.153685400029644	stim	15		2	ambiguous	ambiguous	preferred	600.0	30.0		27.331113299936987	0.0333406999707222
10	23.187026100000367	stim	16		2	ambiguous	ambiguous	preferred	600.0	30.0		27.36445399990771	0.0332353999838233
10	23.22026149998419	stim	17		2	ambiguous	ambiguous	preferred	600.0	30.0		27.397689399891533	0.03332309995312244
10	23.253584599937312	stim	18		2	ambiguous	ambiguous	preferred	600.0	30.0		27.431012499844655	0.033356200088746846
10	23.28694080002606	stim	19		2	ambiguous	ambiguous	preferred	600.0	30.0		27.464368699933402	0.03356809995602816
10	23.320508899982087	stim	20		2	ambiguous	ambiguous	preferred	600.0	30.0		27.49793679988943	0.033136799931526184
10	23.353645699913613	stim	21		2	ambiguous	ambiguous	preferred	600.0	30.0		27.531073599820957	0.033345600008033216
10	23.386991299921647	stim	22		2	ambiguous	ambiguous	preferred	600.0	30.0		27.56441919982899	0.03339830006007105
10	23.420389599981718	stim	23		2	ambiguous	ambiguous	preferred	600.0	30.0		27.59781749988906	0.03330220002681017
10	23.453691800008528	stim	24		2	ambiguous	ambiguous	preferred	600.0	30.0		27.63111969991587	0.03340999991632998
10	23.487101799924858	stim	25		2	ambiguous	ambiguous	preferred	600.0	30.0		27.6645296998322	0.033642400056123734
10	23.52074419998098	stim	26		2	ambiguous	ambiguous	preferred	600.0	30.0		27.698172099888325	0.03337479999754578
10	23.554118999978527	stim	27		2	ambiguous	ambiguous	preferred	600.0	30.0		27.73154689988587	0.033259599935263395
10	23.58737859991379	stim	28		2	ambiguous	ambiguous	preferred	600.0	30.0		27.764806499821134	0.03361620008945465
10	23.620994800003245	stim	29		2	ambiguous	ambiguous	preferred	600.0	30.0		27.79842269991059	0.0333520999411121
10	23.654346899944358	stim	30		2	ambiguous	ambiguous	preferred	600.0	30.0		27.8317747998517	0.03398840001318604
10	23.688335299957544	stim	31		2	ambiguous	ambiguous	preferred	600.0	30.0		27.865763199864887	0.03338659997098148
10	23.721721899928525	stim	32		2	ambiguous	ambiguous	preferred	600.0	30.0		27.899149799835868	0.034406600054353476
10	23.75612849998288	stim	33		2	ambiguous	ambiguous	preferred	600.0	30.0		27.93355639989022	0.0334104000357911
10	23.78953890001867	stim	34		2	ambiguous	ambiguous	preferred	600.0	30.0		27.966966799926013	0.04956819990184158
10	23.83910709992051	stim	35		2	ambiguous	ambiguous	preferred	600.0	30.0		28.016534999827854	0.03328380000311881
10	23.87239089992363	stim	36		2	ambiguous	ambiguous	preferred	600.0	30.0		28.049818799830973	0.033351800055243075
10	23.905742699978873	stim	37		2	ambiguous	ambiguous	preferred	600.0	30.0		28.083170599886216	0.03392990003339946
10	23.939672600012273	stim	38		2	ambiguous	ambiguous	preferred	600.0	30.0		28.117100499919616	0.03363670001272112
10	23.973309300024994	stim	39		2	ambiguous	ambiguous	preferred	600.0	30.0		28.150737199932337	0.033321999944746494
10	24.00663129996974	stim	40		2	ambiguous	ambiguous	preferred	600.0	30.0		28.184059199877083	0.03378960001282394
10	24.040420899982564	stim	41		2	ambiguous	ambiguous	preferred	600.0	30.0		28.217848799889907	0.03331389999948442
10	24.07373479998205	stim	42		2	ambiguous	ambiguous	preferred	600.0	30.0		28.25116269988939	0.03331990004517138
10	24.10705470002722	stim	43		2	ambiguous	ambiguous	preferred	600.0	30.0		28.284482599934563	0.033496699994429946
10	24.14055140002165	stim	44		2	ambiguous	ambiguous	preferred	600.0	30.0		28.317979299928993	0.03318949998356402
10	24.173740900005214	stim	45		2	ambiguous	ambiguous	preferred	600.0	30.0		28.351168799912557	0.033656599931418896
10	24.207397499936633	stim	46		2	ambiguous	ambiguous	preferred	600.0	30.0		28.384825399843976	0.0333047000458464
10	24.24070219998248	stim	47		2	ambiguous	ambiguous	preferred	600.0	30.0		28.418130099889822	0.03337419999297708
10	24.274076399975456	stim	48		2	ambiguous	ambiguous	preferred	600.0	30.0		28.4515042998828	0.03329950000625104
10	24.307375899981707	stim	49		2	ambiguous	ambiguous	preferred	600.0	30.0		28.48480379988905	0.03340860002208501
10	24.340784500003792	stim	50		2	ambiguous	ambiguous	preferred	600.0	30.0		28.518212399911135	0.033672999939881265
10	24.374457499943674	stim	51		2	ambiguous	ambiguous	preferred	600.0	30.0		28.551885399851017	0.033428800059482455
10	24.407886300003156	stim	52		2	ambiguous	ambiguous	preferred	600.0	30.0		28.5853141999105	0.033324999967589974
10	24.441211299970746	stim	53		2	ambiguous	ambiguous	preferred	600.0	30.0		28.61863919987809	0.03407850000075996
10	24.475289799971506	stim	54		2	ambiguous	ambiguous	preferred	600.0	30.0		28.65271769987885	0.03329279995523393
10	24.50858259992674	stim	55		2	ambiguous	ambiguous	preferred	600.0	30.0		28.686010499834083	0.03351890004705638
10	24.542101499973796	stim	56		2	ambiguous	ambiguous	preferred	600.0	30.0		28.71952939988114	0.03319260000716895
10	24.575294099980965	stim	57		2	ambiguous	ambiguous	preferred	600.0	30.0		28.75272199988831	0.033613999956287444
10	24.608908099937253	stim	58		2	ambiguous	ambiguous	preferred	600.0	30.0		28.786335999844596	0.03353290003724396
10	24.642440999974497	stim	59		2	ambiguous	ambiguous	preferred	600.0	30.0		28.81986889988184	0.03331520000938326
10	24.67575619998388	stim	60		2	ambiguous	ambiguous	preferred	600.0	30.0		28.853184099891223	0.03337329998612404
10	24.709129499970004	stim	61		2	ambiguous	ambiguous	preferred	600.0	30.0		28.886557399877347	0.03332040004897863
10	24.742449900018983	stim	62		2	ambiguous	ambiguous	preferred	600.0	30.0		28.919877799926326	0.033682000008411705
10	24.776131900027394	stim	63		2	ambiguous	ambiguous	preferred	600.0	30.0		28.953559799934737	0.03354239999316633
10	24.80967430002056	stim	64		2	ambiguous	ambiguous	preferred	600.0	30.0		28.987102199927904	0.03327069990336895
10	24.84294499992393	stim	65		2	ambiguous	ambiguous	preferred	600.0	30.0		29.020372899831273	0.03358550008852035
10	24.87653050001245	stim	66		2	ambiguous	ambiguous	preferred	600.0	30.0		29.053958399919793	0.03329259995371103
10	24.90982309996616	stim	67		2	ambiguous	ambiguous	preferred	600.0	30.0		29.087250999873504	0.03405140002723783
10	24.9438744999934	stim	68		2	ambiguous	ambiguous	preferred	600.0	30.0		29.121302399900742	0.032979800016619265
10	24.976854300010018	stim	69		2	ambiguous	ambiguous	preferred	600.0	30.0		29.15428219991736	0.03319109999574721
10	25.010045400005765	stim	70		2	ambiguous	ambiguous	preferred	600.0	30.0		29.18747329991311	0.0333719999762252
10	25.04341739998199	stim	71		2	ambiguous	ambiguous	preferred	600.0	30.0		29.220845299889334	0.03355849999934435
10	25.076975899981335	stim	72		2	ambiguous	ambiguous	preferred	600.0	30.0		29.254403799888678	0.03334520000498742
10	25.110321099986322	stim	73		2	ambiguous	ambiguous	preferred	600.0	30.0		29.287748999893665	0.033570999978110194
10	25.143892099964432	stim	74		2	ambiguous	ambiguous	preferred	600.0	30.0		29.321319999871776	0.03340459999162704
10	25.17729669995606	stim	75		2	ambiguous	ambiguous	preferred	600.0	30.0		29.354724599863403	0.03335679997690022
10	25.21065349993296	stim	76		2	ambiguous	ambiguous	preferred	600.0	30.0		29.388081399840303	0.03332990000490099
10	25.24398339993786	stim	77		2	ambiguous	ambiguous	preferred	600.0	30.0		29.421411299845204	0.03402190003544092
10	25.2780052999733	stim	78		2	ambiguous	ambiguous	preferred	600.0	30.0		29.455433199880645	0.033616699976846576
10	25.311621999950148	stim	79		2	ambiguous	ambiguous	preferred	600.0	30.0		29.48904989985749	0.03421790001448244
10	25.34583989996463	stim	80		2	ambiguous	ambiguous	preferred	600.0	30.0		29.523267799871974	0.03332859999500215
10	25.379168499959633	stim	81		2	ambiguous	ambiguous	preferred	600.0	30.0		29.556596399866976	0.034269100055098534
10	25.41343760001473	stim	82		2	ambiguous	ambiguous	preferred	600.0	30.0		29.590865499922074	0.03304429992567748
10	25.44648189994041	stim	83		2	ambiguous	ambiguous	preferred	600.0	30.0		29.623909799847752	0.034005200024694204
10	25.480487099965103	stim	84		2	ambiguous	ambiguous	preferred	600.0	30.0		29.657914999872446	0.03354199999012053
10	25.514029099955224	stim	85		2	ambiguous	ambiguous	preferred	600.0	30.0		29.691456999862567	0.03331279999110848
10	25.547341899946332	stim	86		2	ambiguous	ambiguous	preferred	600.0	30.0		29.724769799853675	0.03317650000099093
10	25.580518399947323	stim	87		2	ambiguous	ambiguous	preferred	600.0	30.0		29.757946299854666	0.03328470000997186
10	25.613803099957295	stim	88		2	ambiguous	ambiguous	preferred	600.0	30.0		29.791230999864638	0.03362030000425875
10	25.647423399961554	stim	89		2	ambiguous	ambiguous	preferred	600.0	30.0		29.824851299868897	0.03335260006133467
10	25.680776000022888	stim	90		2	ambiguous	ambiguous	preferred	600.0	30.0		29.85820389993023	0.03342879994306713
10	25.714204799965955	stim	91		2	ambiguous	ambiguous	preferred	600.0	30.0		29.8916326998733	0.03351520001888275
10	25.747719999984838	stim	92		2	ambiguous	ambiguous	preferred	600.0	30.0		29.92514789989218	0.03321419993881136
10	25.78093419992365	stim	93		2	ambiguous	ambiguous	preferred	600.0	30.0		29.958362099830993	0.03364310006145388
10	25.814577299985103	stim	94		2	ambiguous	ambiguous	preferred	600.0	30.0		29.992005199892446	0.03338309994433075
10	25.847960399929434	stim	95		2	ambiguous	ambiguous	preferred	600.0	30.0		30.025388299836777	0.033378400024957955
10	25.881338799954392	stim	96		2	ambiguous	ambiguous	preferred	600.0	30.0		30.058766699861735	0.033299900009296834
10	25.91463869996369	stim	97		2	ambiguous	ambiguous	preferred	600.0	30.0		30.092066599871032	0.03427219996228814
10	25.948910899925977	stim	98		2	ambiguous	ambiguous	preferred	600.0	30.0		30.12633879983332	0.033003900083713233
10	25.98191480000969	stim	99		2	ambiguous	ambiguous	preferred	600.0	30.0		30.159342699917033	0.03380179998930544
10	26.015716599998996	stim	100		2	ambiguous	ambiguous	preferred	600.0	30.0		30.19314449990634	0.03353549994062632
10	26.049252099939622	stim	101		2	ambiguous	ambiguous	preferred	600.0	30.0		30.226679999846965	0.033532500034198165
10	26.08278459997382	stim	102		2	ambiguous	ambiguous	preferred	600.0	30.0		30.260212499881163	0.03310010000132024
10	26.11588469997514	stim	103		2	ambiguous	ambiguous	preferred	600.0	30.0		30.293312599882483	0.033701400039717555
10	26.149586100014858	stim	104		2	ambiguous	ambiguous	preferred	600.0	30.0		30.3270139999222	0.03340969991404563
10	26.182995799928904	stim	105		2	ambiguous	ambiguous	preferred	600.0	30.0		30.360423699836247	0.03345650003757328
10	26.216452299966477	stim	106		2	ambiguous	ambiguous	preferred	600.0	30.0		30.39388019987382	0.033345900010317564
10	26.249798199976794	stim	107		2	ambiguous	ambiguous	preferred	600.0	30.0		30.427226099884138	0.033313199994154274
10	26.28311139997095	stim	108		2	ambiguous	ambiguous	preferred	600.0	30.0		30.460539299878292	0.03362540004309267
10	26.31673680001404	stim	109		2	ambiguous	ambiguous	preferred	600.0	30.0		30.494164699921384	0.033596199937164783
10	26.350332999951206	stim	110		2	ambiguous	ambiguous	preferred	600.0	30.0		30.52776089985855	0.033331000013276935
10	26.383663999964483	stim	111		2	ambiguous	ambiguous	preferred	600.0	30.0		30.561091899871826	0.03356480004731566
10	26.4172288000118	stim	112		2	ambiguous	ambiguous	preferred	600.0	30.0		30.594656699919142	0.03337499999906868
10	26.450603800010867	stim	113		2	ambiguous	ambiguous	preferred	600.0	30.0		30.62803169991821	0.03341249993536621
10	26.484016299946234	stim	114		2	ambiguous	ambiguous	preferred	600.0	30.0		30.661444199853577	0.0333551000803709
10	26.517371400026605	stim	115		2	ambiguous	ambiguous	preferred	600.0	30.0		30.694799299933948	0.03368369990494102
10	26.551055099931546	stim	116		2	ambiguous	ambiguous	preferred	600.0	30.0		30.72848299983889	0.033214200055226684
10	26.584269299986772	stim	117		2	ambiguous	ambiguous	preferred	600.0	30.0		30.761697199894115	0.03330240002833307
10	26.617571700015105	stim	118		2	ambiguous	ambiguous	preferred	600.0	30.0		30.79499959992245	0.03340829990338534
10	26.65097999991849	stim	119		2	ambiguous	ambiguous	preferred	600.0	30.0		30.828407899825834	0.03338870010338724
10	26.684368700021878	stim	120		2	ambiguous	ambiguous	preferred	600.0	30.0		30.86179659992922	0.033317299908958375
10	26.717685999930836	stim	121		2	ambiguous	ambiguous	preferred	600.0	30.0		30.89511389983818	0.03354199999012053
10	26.751227999920957	stim	122		2	ambiguous	ambiguous	preferred	600.0	30.0		30.9286558998283	0.03349860000889748
10	26.784726599929854	stim	123		2	ambiguous	ambiguous	preferred	600.0	30.0		30.962154499837197	0.03365310002118349
10	26.818379699951038	stim	124		2	ambiguous	ambiguous	preferred	600.0	30.0		30.99580759985838	0.03308159997686744
10	26.851461299927905	stim	125		2	ambiguous	ambiguous	preferred	600.0	30.0		31.02888919983525	0.03354920004494488
10	26.88501049997285	stim	126		2	ambiguous	ambiguous	preferred	600.0	30.0		31.062438399880193	0.03497459995560348
10	26.919985099928454	stim	127		2	ambiguous	ambiguous	preferred	600.0	30.0		31.097412999835797	0.03329000005032867
10	26.953275099978782	stim	128		2	ambiguous	ambiguous	preferred	600.0	30.0		31.130702999886125	0.033864099998027086
10	26.98713919997681	stim	129		2	ambiguous	ambiguous	preferred	600.0	30.0		31.164567099884152	0.03306739998515695
10	27.020206599961966	stim	130		2	ambiguous	ambiguous	preferred	600.0	30.0		31.19763449986931	0.03331560001242906
10	27.053522199974395	stim	131		2	ambiguous	ambiguous	preferred	600.0	30.0		31.23095009988174	0.03335070004686713
10	27.086872900021262	stim	132		2	ambiguous	ambiguous	preferred	600.0	30.0		31.264300799928606	0.03325199999380857
10	27.12012490001507	stim	133		2	ambiguous	ambiguous	preferred	600.0	30.0		31.297552799922414	0.03339619992766529
10	27.153521099942736	stim	134		2	ambiguous	ambiguous	preferred	600.0	30.0		31.33094899985008	0.03343160008080304
10	27.18695270002354	stim	135		2	ambiguous	ambiguous	preferred	600.0	30.0		31.364380599930882	0.03324809996411204
10	27.22020079998765	stim	136		2	ambiguous	ambiguous	preferred	600.0	30.0		31.397628699894994	0.03333070001099259
10	27.253531499998644	stim	137		2	ambiguous	ambiguous	preferred	600.0	30.0		31.430959399905987	0.03338529996108264
10	27.286916799959727	stim	138		2	ambiguous	ambiguous	preferred	600.0	30.0		31.46434469986707	0.03332459996454418
10	27.32024139992427	stim	139		2	ambiguous	ambiguous	preferred	600.0	30.0		31.497669299831614	0.033437700010836124
10	27.353679099935107	stim	140		2	ambiguous	ambiguous	preferred	600.0	30.0		31.53110699984245	0.033388799987733364
10	27.38706789992284	stim	141		2	ambiguous	ambiguous	preferred	600.0	30.0		31.564495799830183	0.03365029999986291
10	27.420718199922703	stim	142		2	ambiguous	ambiguous	preferred	600.0	30.0		31.598146099830046	0.03332600009161979
10	27.454044200014323	stim	143		2	ambiguous	ambiguous	preferred	600.0	30.0		31.631472099921666	0.033303899923339486
10	27.487348099937662	stim	144		2	ambiguous	ambiguous	preferred	600.0	30.0		31.664775999845006	0.033340100082568824
10	27.52068820002023	stim	145		2	ambiguous	ambiguous	preferred	600.0	30.0		31.698116099927574	0.03334159997757524
10	27.554029799997807	stim	146		2	ambiguous	ambiguous	preferred	600.0	30.0		31.73145769990515	0.03351420001126826
10	27.587544000009075	stim	147		2	ambiguous	ambiguous	preferred	600.0	30.0		31.764971899916418	0.03338459995575249
10	27.620928599964827	stim	148		2	ambiguous	ambiguous	preferred	600.0	30.0		31.79835649987217	0.04982469999231398
10	27.67075329995714	stim	149		2	ambiguous	ambiguous	preferred	600.0	30.0		31.848181199864484	0.033353100065141916
10	27.704106400022283	stim	150		2	ambiguous	ambiguous	preferred	600.0	30.0		31.881534299929626	0.03358029993250966
10	27.737686699954793	stim	151		2	ambiguous	ambiguous	preferred	600.0	30.0		31.915114599862136	0.033574000000953674
10	27.771260699955747	stim	152		2	ambiguous	ambiguous	preferred	600.0	30.0		31.94868859986309	0.03343680000398308
10	27.80469749995973	stim	153		2	ambiguous	ambiguous	preferred	600.0	30.0		31.982125399867073	0.033232899964787066
10	27.837930399924517	stim	154		2	ambiguous	ambiguous	preferred	600.0	30.0		32.01535829983186	0.03331790002994239
10	27.87124829995446	stim	155		2	ambiguous	ambiguous	preferred	600.0	30.0		32.0486761998618	0.03372249996755272
10	27.904970799922012	stim	156		2	ambiguous	ambiguous	preferred	600.0	30.0		32.082398699829355	0.032930899993516505
10	27.93790169991553	stim	157		2	ambiguous	ambiguous	preferred	600.0	30.0		32.11532959982287	0.03406520001590252
10	27.97196689993143	stim	158		2	ambiguous	ambiguous	preferred	600.0	30.0		32.149394799838774	0.03304230002686381
10	28.005009199958295	stim	159		2	ambiguous	ambiguous	preferred	600.0	30.0		32.18243709986564	0.03330180002376437
10	28.03831099998206	stim	160		2	ambiguous	ambiguous	preferred	600.0	30.0		32.2157388998894	0.03348270000424236
10	28.0717936999863	stim	161		2	ambiguous	ambiguous	preferred	600.0	30.0		32.249221599893644	0.03335669997613877
10	28.10515039996244	stim	162		2	ambiguous	ambiguous	preferred	600.0	30.0		32.28257829986978	0.03356240002904087
10	28.13871279999148	stim	163		2	ambiguous	ambiguous	preferred	600.0	30.0		32.316140699898824	0.03359130001626909
10	28.17230410000775	stim	164		2	ambiguous	ambiguous	preferred	600.0	30.0		32.34973199991509	0.033601899980567396
10	28.205905999988317	stim	165		2	ambiguous	ambiguous	preferred	600.0	30.0		32.38333389989566	0.033113299985416234
10	28.239019299973734	stim	166		2	ambiguous	ambiguous	preferred	600.0	30.0		32.41644719988108	0.033526499988511205
10	28.272545799962245	stim	167		2	ambiguous	ambiguous	preferred	600.0	30.0		32.44997369986959	0.0335075999610126
10	28.306053399923258	stim	168		2	ambiguous	ambiguous	preferred	600.0	30.0		32.4834812998306	0.033766800072044134
10	28.3398201999953	stim	169		2	ambiguous	ambiguous	preferred	600.0	30.0		32.517248099902645	0.03356689994689077
10	28.373387099942192	stim	170		2	ambiguous	ambiguous	preferred	600.0	30.0		32.550814999849536	0.033064500079490244
10	28.406451600021683	stim	171		2	ambiguous	ambiguous	preferred	600.0	30.0		32.583879499929026	0.03342309989966452
10	28.439874699921347	stim	172		2	ambiguous	ambiguous	preferred	600.0	30.0		32.61730259982869	0.03332980000413954
10	28.473204499925487	stim	173		2	ambiguous	ambiguous	preferred	600.0	30.0		32.65063239983283	0.0340251000598073
10	28.507229599985294	stim	174		2	ambiguous	ambiguous	preferred	600.0	30.0		32.68465749989264	0.03334850003011525
10	28.54057810001541	stim	175		2	ambiguous	ambiguous	preferred	600.0	30.0		32.71800599992275	0.033672799938358366
10	28.574250899953768	stim	176		2	ambiguous	ambiguous	preferred	600.0	30.0		32.75167879986111	0.03332569997292012
10	28.607576599926688	stim	177		2	ambiguous	ambiguous	preferred	600.0	30.0		32.78500449983403	0.03313280001748353
10	28.64070939994417	stim	178		2	ambiguous	ambiguous	preferred	600.0	30.0		32.818137299851514	0.03371890005655587
10	28.674428300000727	stim	179		2	ambiguous	ambiguous	preferred	600.0	30.0		32.85185619990807	0.03331039997283369
10	28.70773869997356	stim	180		2	ambiguous	ambiguous	preferred	600.0	30.0		32.885166599880904	0.0335586000001058
10	28.741297299973667	stim	181		2	ambiguous	ambiguous	preferred	600.0	30.0		32.91872519988101	0.033086400013417006
10	28.774383699987084	stim	182		2	ambiguous	ambiguous	preferred	600.0	30.0		32.95181159989443	0.03385160001926124
10	28.808235300006345	stim	183		2	ambiguous	ambiguous	preferred	600.0	30.0		32.98566319991369	0.032936799922026694
10	28.84117209992837	stim	184		2	ambiguous	ambiguous	preferred	600.0	30.0		33.018599999835715	0.03336460003629327
10	28.874536699964665	stim	185		2	ambiguous	ambiguous	preferred	600.0	30.0		33.05196459987201	0.03332919999957085
10	28.907865899964236	stim	186		2	ambiguous	ambiguous	preferred	600.0	30.0		33.08529379987158	0.03352559998165816
10	28.941391499945894	stim	187		2	ambiguous	ambiguous	preferred	600.0	30.0		33.11881939985324	0.03352840000297874
10	28.974919899948873	stim	188		2	ambiguous	ambiguous	preferred	600.0	30.0		33.152347799856216	0.0331609999993816
10	29.008080899948254	stim	189		2	ambiguous	ambiguous	preferred	600.0	30.0		33.1855087998556	0.033323600073345006
10	29.0414045000216	stim	190		2	ambiguous	ambiguous	preferred	600.0	30.0		33.21883239992894	0.03377459989860654
10	29.075179099920206	stim	191		2	ambiguous	ambiguous	preferred	600.0	30.0		33.25260699982755	0.03333190002012998
10	29.108510999940336	stim	192		2	ambiguous	ambiguous	preferred	600.0	30.0		33.28593889984768	0.033367900061421096
10	29.141878900001757	stim	193		2	ambiguous	ambiguous	preferred	600.0	30.0		33.3193067999091	0.03329019993543625
10	29.175169099937193	stim	194		2	ambiguous	ambiguous	preferred	600.0	30.0		33.352596999844536	0.03345580003224313
10	29.208624899969436	stim	195		2	ambiguous	ambiguous	preferred	600.0	30.0		33.38605279987678	0.03341419994831085
10	29.242039099917747	stim	196		2	ambiguous	ambiguous	preferred	600.0	30.0		33.41946699982509	0.03358820010907948
10	29.275627300026827	stim	197		2	ambiguous	ambiguous	preferred	600.0	30.0		33.45305519993417	0.03345019998960197
10	29.30907750001643	stim	198		2	ambiguous	ambiguous	preferred	600.0	30.0		33.48650539992377	0.03359219990670681
10	29.342669699923135	stim	199		2	ambiguous	ambiguous	preferred	600.0	30.0		33.52009759983048	0.03328309999778867
10	29.375952799920924	stim	200		2	ambiguous	ambiguous	preferred	600.0	30.0		33.55338069982827	0.033428900060243905
10	29.409381699981168	stim	201		2	ambiguous	ambiguous	preferred	600.0	30.0		33.58680959988851	0.033251099986955523
10	29.442632799968123	stim	202		2	ambiguous	ambiguous	preferred	600.0	30.0		33.62006069987547	0.033337000058963895
10	29.475969800027087	stim	203		2	ambiguous	ambiguous	preferred	600.0	30.0		33.65339769993443	0.033318799920380116
10	29.509288599947467	stim	204		2	ambiguous	ambiguous	preferred	600.0	30.0		33.68671649985481	0.033326499979011714
10	29.54261509992648	stim	205		2	ambiguous	ambiguous	preferred	600.0	30.0		33.72004299983382	0.03377000009641051
10	29.57638510002289	stim	206		2	ambiguous	ambiguous	preferred	600.0	30.0		33.75381299993023	0.033905799966305494
10	29.610290899989195	stim	207		2	ambiguous	ambiguous	preferred	600.0	30.0		33.78771879989654	0.03317199996672571
10	29.64346289995592	stim	208		2	ambiguous	ambiguous	preferred	600.0	30.0		33.820890799863264	0.0342162000015378
10	29.67767909995746	stim	209		2	ambiguous	ambiguous	preferred	600.0	30.0		33.8551069998648	0.03312849998474121
10	29.7108075999422	stim	210		2	ambiguous	ambiguous	preferred	600.0	30.0		33.88823549984954	0.03355130006093532
10	29.744358900003135	stim	211		2	ambiguous	ambiguous	preferred	600.0	30.0		33.92178679991048	0.033339499961584806
10	29.77769839996472	stim	212		2	ambiguous	ambiguous	preferred	600.0	30.0		33.95512629987206	0.033689499949105084
10	29.811387899913825	stim	213		2	ambiguous	ambiguous	preferred	600.0	30.0		33.98881579982117	0.03350110002793372
10	29.84488899994176	stim	214		2	ambiguous	ambiguous	preferred	600.0	30.0		34.0223168998491	0.03342630004044622
10	29.878315299982205	stim	215		2	ambiguous	ambiguous	preferred	600.0	30.0		34.05574319988955	0.03376250003930181
10	29.912077800021507	stim	216		2	ambiguous	ambiguous	preferred	600.0	30.0		34.08950569992885	0.033313199994154274
10	29.94539100001566	stim	217		2	ambiguous	ambiguous	preferred	600.0	30.0		34.122818899923004	0.0336754999589175
10	29.97906649997458	stim	218		2	ambiguous	ambiguous	preferred	600.0	30.0		34.15649439988192	0.03382899996358901
10	30.012895499938168	stim	219		2	ambiguous	ambiguous	preferred	600.0	30.0		34.19032339984551	0.032965100021101534
10	30.04586059995927	stim	220		2	ambiguous	ambiguous	preferred	600.0	30.0		34.22328849986661	0.0336403000401333
10	30.079500899999402	stim	221		2	ambiguous	ambiguous	preferred	600.0	30.0		34.256928799906746	0.03327399992849678
10	30.1127748999279	stim	222		2	ambiguous	ambiguous	preferred	600.0	30.0		34.29020279983524	0.033505800063721836
10	30.14628069999162	stim	223		2	ambiguous	ambiguous	preferred	600.0	30.0		34.323708599898964	0.03333210002165288
10	30.179612800013274	stim	224		2	ambiguous	ambiguous	preferred	600.0	30.0		34.35704069992062	0.033342699985951185
10	30.212955499999225	stim	225		2	ambiguous	ambiguous	preferred	600.0	30.0		34.39038339990657	0.03403109998907894
10	30.246986599988304	stim	226		2	ambiguous	ambiguous	preferred	600.0	30.0		34.42441449989565	0.032984199933707714
10	30.279970799922012	stim	227		2	ambiguous	ambiguous	preferred	600.0	30.0		34.457398699829355	0.0333366000559181
10	30.31330739997793	stim	228		2	ambiguous	ambiguous	preferred	600.0	30.0		34.49073529988527	0.033319200039841235
10	30.34662660001777	stim	229		2	ambiguous	ambiguous	preferred	600.0	30.0		34.524054499925114	0.033687899936921895
10	30.380314499954693	stim	230		2	ambiguous	ambiguous	preferred	600.0	30.0		34.557742399862036	0.03314349998254329
10	30.413457999937236	stim	231		2	ambiguous	ambiguous	preferred	600.0	30.0		34.59088589984458	0.033489600056782365
10	30.44694759999402	stim	232		2	ambiguous	ambiguous	preferred	600.0	30.0		34.62437549990136	0.03324599994812161
10	30.48019359994214	stim	233		2	ambiguous	ambiguous	preferred	600.0	30.0		34.65762149984948	0.033322300063446164
10	30.513515900005586	stim	234		2	ambiguous	ambiguous	preferred	600.0	30.0		34.69094379991293	0.033397399936802685
10	30.54691329994239	stim	235		2	ambiguous	ambiguous	preferred	600.0	30.0		34.72434119984973	0.0332551000174135
10	30.580168399959803	stim	236		2	ambiguous	ambiguous	preferred	600.0	30.0		34.757596299867146	0.03371690004132688
10	30.61388530000113	stim	237		2	ambiguous	ambiguous	preferred	600.0	30.0		34.79131319990847	0.03407539997715503
10	30.647960699978285	stim	238		2	ambiguous	ambiguous	preferred	600.0	30.0		34.82538859988563	0.033517900039441884
10	30.681478600017726	stim	239		2	ambiguous	ambiguous	preferred	600.0	30.0		34.85890649992507	0.033381099929101765
10	30.714859699946828	stim	240		2	ambiguous	ambiguous	preferred	600.0	30.0		34.89228759985417	0.033446800080128014
10	30.748306500026956	stim	241		2	ambiguous	ambiguous	preferred	600.0	30.0		34.9257343999343	0.03330039989668876
10	30.781606899923645	stim	242		2	ambiguous	ambiguous	preferred	600.0	30.0		34.95903479983099	0.03352880000602454
10	30.81513569992967	stim	243		2	ambiguous	ambiguous	preferred	600.0	30.0		34.99256359983701	0.033253700006753206
10	30.848389399936423	stim	244		2	ambiguous	ambiguous	preferred	600.0	30.0		35.025817299843766	0.03368120000232011
10	30.882070599938743	stim	245		2	ambiguous	ambiguous	preferred	600.0	30.0		35.059498499846086	0.03365500003565103
10	30.915725599974394	stim	246		2	ambiguous	ambiguous	preferred	600.0	30.0		35.09315349988174	0.03373010002542287
10	30.949455699999817	stim	247		2	ambiguous	ambiguous	preferred	600.0	30.0		35.12688359990716	0.033446199959143996
10	30.98290189995896	stim	248		2	ambiguous	ambiguous	preferred	600.0	30.0		35.160329799866304	0.03325139998923987
10	31.0161532999482	stim	249		2	ambiguous	ambiguous	preferred	600.0	30.0		35.193581199855544	0.033400900079868734
10	31.04955420002807	stim	250		2	ambiguous	ambiguous	preferred	600.0	30.0		35.22698209993541	0.03365479991771281
10	31.083208999945782	stim	251		2	ambiguous	ambiguous	preferred	600.0	30.0		35.260636899853125	0.03312310006003827
10	31.11633210000582	stim	252		2	ambiguous	ambiguous	preferred	600.0	30.0		35.29375999991316	0.03331129997968674
10	31.149643399985507	stim	253		2	ambiguous	ambiguous	preferred	600.0	30.0		35.32707129989285	0.0333402999676764
10	31.182983699953184	stim	254		2	ambiguous	ambiguous	preferred	600.0	30.0		35.36041159986053	0.03414490004070103
10	31.217128599993885	stim	255		2	ambiguous	ambiguous	preferred	600.0	30.0		35.39455649990123	0.033837600029073656
10	31.250966200022958	stim	256		2	ambiguous	ambiguous	preferred	600.0	30.0		35.4283940999303	0.033156099962070584
10	31.28412229998503	stim	257		2	ambiguous	ambiguous	preferred	600.0	30.0		35.46155019989237	0.03356559993699193
10	31.31768789992202	stim	258		2	ambiguous	ambiguous	preferred	600.0	30.0		35.495115799829364	0.03347390005365014
10	31.35116179997567	stim	259		2	ambiguous	ambiguous	preferred	600.0	30.0		35.528589699883014	0.033381500048562884
10	31.384543300024234	stim	260		2	ambiguous	ambiguous	preferred	600.0	30.0		35.56197119993158	0.03374739992432296
10	31.418290699948557	stim	261		2	ambiguous	ambiguous	preferred	600.0	30.0		35.5957185998559	0.03293630003463477
10	31.45122699998319	stim	262		2	ambiguous	ambiguous	preferred	600.0	30.0		35.628654899890535	0.033212500042282045
10	31.484439500025474	stim	263		2	ambiguous	ambiguous	preferred	600.0	30.0		35.66186739993282	0.03338599996641278
10	31.517825499991886	stim	264		2	ambiguous	ambiguous	preferred	600.0	30.0		35.69525339989923	0.03344000002834946
10	31.551265500020236	stim	265		2	ambiguous	ambiguous	preferred	600.0	30.0		35.72869339992758	0.033518899930641055
10	31.584784399950877	stim	266		2	ambiguous	ambiguous	preferred	600.0	30.0		35.76221229985822	0.03322910005226731
10	31.618013500003144	stim	267		2	ambiguous	ambiguous	preferred	600.0	30.0		35.79544139991049	0.03525469999294728
10	31.65326819999609	stim	268		2	ambiguous	ambiguous	preferred	600.0	30.0		35.830696099903435	0.033733899937942624
10	31.687002099934034	stim	269		2	ambiguous	ambiguous	preferred	600.0	30.0		35.86442999984138	0.03315590007696301
10	31.720158000010997	stim	270		2	ambiguous	ambiguous	preferred	600.0	30.0		35.89758589991834	0.03324359992984682
10	31.753401599940844	stim	271		2	ambiguous	ambiguous	preferred	600.0	30.0		35.93082949984819	0.03347660007420927
10	31.786878200015053	stim	272		2	ambiguous	ambiguous	preferred	600.0	30.0		35.964306099922396	0.03321769996546209
10	31.820095899980515	stim	273		2	ambiguous	ambiguous	preferred	600.0	30.0		35.99752379988786	0.03353549994062632
10	31.85363139992114	stim	274		2	ambiguous	ambiguous	preferred	600.0	30.0		36.031059299828485	0.03310510003939271
10	31.886736499960534	stim	275		2	ambiguous	ambiguous	preferred	600.0	30.0		36.06416439986788	0.033892299979925156
10	31.92062879994046	stim	276		2	ambiguous	ambiguous	preferred	600.0	30.0		36.0980566998478	0.03285309998318553
10	31.953481899923645	stim	277		2	ambiguous	ambiguous	preferred	600.0	30.0		36.13090979983099	0.03388260002247989
10	31.987364499946125	stim	278		2	ambiguous	ambiguous	preferred	600.0	30.0		36.16479239985347	0.032658200012519956
10	32.020022699958645	stim	279		2	ambiguous	ambiguous	preferred	600.0	30.0		36.19745059986599	0.03369109996128827
10	32.05371379991993	stim	280		2	ambiguous	ambiguous	preferred	600.0	30.0		36.231141699827276	0.03303550009150058
10	32.086749300011434	stim	281		2	ambiguous	ambiguous	preferred	600.0	30.0		36.26417719991878	0.033792799920774996
10	32.12054209993221	stim	282		2	ambiguous	ambiguous	preferred	600.0	30.0		36.29796999983955	0.03338320006150752
10	32.153925299993716	stim	283		2	ambiguous	ambiguous	preferred	600.0	30.0		36.33135319990106	0.03397210000548512
10	32.1878973999992	stim	284		2	ambiguous	ambiguous	preferred	600.0	30.0		36.365325299906544	0.04931399994529784
10	32.2372113999445	stim	285		2	ambiguous	ambiguous	preferred	600.0	30.0		36.41463929985184	0.03385200002230704
10	32.271063399966806	stim	286		2	ambiguous	ambiguous	preferred	600.0	30.0		36.44849129987415	0.03346039995085448
10	32.30452379991766	stim	287		2	ambiguous	ambiguous	preferred	600.0	30.0		36.481951699825004	0.050405300105921924
10	32.35492910002358	stim	288		2	ambiguous	ambiguous	preferred	600.0	30.0		36.532356999930926	0.033433199976570904
10	32.38836230000015	stim	289		2	ambiguous	ambiguous	preferred	600.0	30.0		36.5657901999075	0.033056900021620095
10	32.421419200021774	stim	290		2	ambiguous	ambiguous	preferred	600.0	30.0		36.59884709992912	0.0336561999283731
10	32.45507539995015	stim	291		2	ambiguous	ambiguous	preferred	600.0	30.0		36.63250329985749	0.03331069997511804
10	32.488386099925265	stim	292		2	ambiguous	ambiguous	preferred	600.0	30.0		36.66581399983261	0.03298410004936159
10	32.521370199974626	stim	293		2	ambiguous	ambiguous	preferred	600.0	30.0		36.69879809988197	0.03365160000976175
10	32.55502179998439	stim	294		2	ambiguous	ambiguous	preferred	600.0	30.0		36.73244969989173	0.03332459996454418
10	32.58834639994893	stim	295		2	ambiguous	ambiguous	preferred	600.0	30.0		36.765774299856275	0.03350949997548014
10	32.62185589992441	stim	296		2	ambiguous	ambiguous	preferred	600.0	30.0		36.799283799831755	0.03370870009530336
10	32.655564600019716	stim	297		2	ambiguous	ambiguous	preferred	600.0	30.0		36.83299249992706	0.03349409997463226
10	32.68905869999435	stim	298		2	ambiguous	ambiguous	preferred	600.0	30.0		36.86648659990169	0.0333482000278309
10	32.72240690002218	stim	299		2	ambiguous	ambiguous	preferred	600.0	30.0		36.89983479992952	0.033716099918819964
10	32.756122999941	stim	300		2	ambiguous	ambiguous	preferred	600.0	30.0		36.93355089984834	0.03335220005828887
10	32.78947519999929	stim	301		2	ambiguous	ambiguous	preferred	600.0	30.0		36.96690309990663	0.03351340000517666
10	32.822988600004464	stim	302		2	ambiguous	ambiguous	preferred	600.0	30.0		37.00041649991181	0.033164699911139905
10	32.856153299915604	stim	303		2	ambiguous	ambiguous	preferred	600.0	30.0		37.03358119982295	0.03356900007929653
10	32.8897222999949	stim	304		2	ambiguous	ambiguous	preferred	600.0	30.0		37.067150199902244	0.03332269995007664
10	32.92304499994498	stim	305		2	ambiguous	ambiguous	preferred	600.0	30.0		37.10047289985232	0.04957699996884912
10	32.97262199991383	stim	306		2	ambiguous	ambiguous	preferred	600.0	30.0		37.15004989982117	0.033513200003653765
10	33.00613519991748	stim	307		2	ambiguous	ambiguous	preferred	600.0	30.0		37.18356309982482	0.033874900080263615
10	33.040010099997744	stim	308		2	ambiguous	ambiguous	preferred	600.0	30.0		37.21743799990509	0.03321399993728846
10	33.07322409993503	stim	309		2	ambiguous	ambiguous	preferred	600.0	30.0		37.250651999842376	0.03337940003257245
10	33.106603499967605	stim	310		2	ambiguous	ambiguous	preferred	600.0	30.0		37.28403139987495	0.03377900004852563
10	33.14038250001613	stim	311		2	ambiguous	ambiguous	preferred	600.0	30.0		37.317810399923474	0.033209399902261794
10	33.17359189991839	stim	312		2	ambiguous	ambiguous	preferred	600.0	30.0		37.351019799825735	0.03353810007683933
10	33.20712999999523	stim	313		2	ambiguous	ambiguous	preferred	600.0	30.0		37.384557899902575	0.033093699952587485
10	33.24022369994782	stim	314		2	ambiguous	ambiguous	preferred	600.0	30.0		37.41765159985516	0.033481899998150766
10	33.27370559994597	stim	315		2	ambiguous	ambiguous	preferred	600.0	30.0		37.45113349985331	0.033537000068463385
10	33.30724260001443	stim	316		2	ambiguous	ambiguous	preferred	600.0	30.0		37.484670499921776	0.03344419994391501
10	33.34068679995835	stim	317		2	ambiguous	ambiguous	preferred	600.0	30.0		37.51811469986569	0.033055400010198355
10	33.37374219996855	stim	318		2	ambiguous	ambiguous	preferred	600.0	30.0		37.55117009987589	0.03406810003798455
10	33.40781030000653	stim	319		2	ambiguous	ambiguous	preferred	600.0	30.0		37.585238199913874	0.03289939998649061
10	33.44070969999302	stim	320		2	ambiguous	ambiguous	preferred	600.0	30.0		37.618137599900365	0.03350969997700304
10	33.474219399970025	stim	321		2	ambiguous	ambiguous	preferred	600.0	30.0		37.65164729987737	0.03330160002224147
10	33.507520999992266	stim	322		2	ambiguous	ambiguous	preferred	600.0	30.0		37.68494889989961	0.033551399945281446
10	33.54107239993755	stim	323		2	ambiguous	ambiguous	preferred	600.0	30.0		37.71850029984489	0.03352460009045899
10	33.57459700002801	stim	324		2	ambiguous	ambiguous	preferred	600.0	30.0		37.75202489993535	0.03338139993138611
10	33.60797839995939	stim	325		2	ambiguous	ambiguous	preferred	600.0	30.0		37.785406299866736	0.033290900057181716
10	33.641269300016575	stim	326		2	ambiguous	ambiguous	preferred	600.0	30.0		37.81869719992392	0.0341651999624446
10	33.67543449997902	stim	327		2	ambiguous	ambiguous	preferred	600.0	30.0		37.85286239988636	0.033080499968491495
10	33.70851499994751	stim	328		2	ambiguous	ambiguous	preferred	600.0	30.0		37.885942899854854	0.033485200023278594
10	33.74200019997079	stim	329		2	ambiguous	ambiguous	preferred	600.0	30.0		37.91942809987813	0.03361929999664426
10	33.77561949996743	stim	330		2	ambiguous	ambiguous	preferred	600.0	30.0		37.95304739987478	0.033305900054983795
10	33.80892540002242	stim	331		2	ambiguous	ambiguous	preferred	600.0	30.0		37.98635329992976	0.03291829989757389
10	33.84184369991999	stim	332		2	ambiguous	ambiguous	preferred	600.0	30.0		38.019271599827334	0.03334180009551346
10	33.875185500015505	stim	333		2	ambiguous	ambiguous	preferred	600.0	30.0		38.05261339992285	0.033437600010074675
10	33.90862310002558	stim	334		2	ambiguous	ambiguous	preferred	600.0	30.0		38.08605099993292	0.03352949989493936
10	33.94215259992052	stim	335		2	ambiguous	ambiguous	preferred	600.0	30.0		38.11958049982786	0.03364300006069243
10	33.97579559998121	stim	336		2	ambiguous	ambiguous	preferred	600.0	30.0		38.153223499888554	0.03397779993247241
10	34.00977339991368	stim	337		2	ambiguous	ambiguous	preferred	600.0	30.0		38.18720129982103	0.03343160008080304
10	34.04320499999449	stim	338		2	ambiguous	ambiguous	preferred	600.0	30.0		38.22063289990183	0.03339569992385805
10	34.076600699918345	stim	339		2	ambiguous	ambiguous	preferred	600.0	30.0		38.25402859982569	0.03331960004288703
10	34.10992029996123	stim	340		2	ambiguous	ambiguous	preferred	600.0	30.0		38.287348199868575	0.03336909995414317
10	34.143289399915375	stim	341		2	ambiguous	ambiguous	preferred	600.0	30.0		38.32071729982272	0.03333440003916621
10	34.17662379995454	stim	342		2	ambiguous	ambiguous	preferred	600.0	30.0		38.354051699861884	0.033323600073345006
10	34.209947400027886	stim	343		2	ambiguous	ambiguous	preferred	600.0	30.0		38.38737529993523	0.03335409995634109
10	34.24330149998423	stim	344		2	ambiguous	ambiguous	preferred	600.0	30.0		38.42072939989157	0.03331520000938326
10	34.27661669999361	stim	345		2	ambiguous	ambiguous	preferred	600.0	30.0		38.45404459990095	0.033353099948726594
10	34.30996979994234	stim	346		2	ambiguous	ambiguous	preferred	600.0	30.0		38.48739769984968	0.033501200028695166
