trial_nr	onset	event_type	phase	response	nr_frames	block_type	trial_type	response_hand	phase_length	last_frame	key_duration	onset_abs	duration
0	0.01068830001167953	stim	0		0	break	break	preferred	1.0	0.0		4.271822499926202	2.6927826999453828
0	2.7034709999570623	break	0	space	0	break	break	preferred	1.0	0.0	0.07920300005935133	6.964605199871585	0.31898420001380146
0	3.0224551999708638	break	0	space	119	break	break	preferred	1.0	0.0	0.06380520004313439	7.283589399885386	-0.9761569999391213
1	2.0462982000317425	stim	0		2	unambiguous	right	preferred	67.0	0.0		6.307432399946265	0.037583200028166175
1	2.0838814000599086	stim	1		2	unambiguous	right	preferred	67.0	0.0		6.345015599974431	0.033157599973492324
1	2.117039000033401	stim	2		2	unambiguous	right	preferred	67.0	0.0		6.378173199947923	0.033250899985432625
1	2.1502899000188336	stim	3		2	unambiguous	right	preferred	67.0	0.0		6.411424099933356	0.033397500053979456
1	2.183687400072813	stim	4		2	unambiguous	right	preferred	67.0	0.0		6.4448215999873355	0.033599199960008264
1	2.2172866000328213	stim	5		2	unambiguous	right	preferred	67.0	0.0		6.478420799947344	0.0339356999611482
1	2.2512222999939695	stim	6		2	unambiguous	right	preferred	67.0	0.0		6.512356499908492	0.03383950004354119
1	2.2850618000375107	stim	7		2	unambiguous	right	preferred	67.0	0.0		6.546195999952033	0.03325290000066161
1	2.3183147000381723	stim	8		2	unambiguous	right	preferred	67.0	0.0		6.579448899952695	0.033344399998895824
1	2.351659100037068	stim	9		2	unambiguous	right	preferred	67.0	0.0		6.612793299951591	0.03339570004027337
1	2.3850548000773415	stim	10		2	unambiguous	right	preferred	67.0	0.0		6.646188999991864	0.03356819995678961
1	2.418623000034131	stim	11		2	unambiguous	right	preferred	67.0	0.0		6.679757199948654	0.033370899967849255
1	2.4519939000019804	stim	12		2	unambiguous	right	preferred	67.0	0.0		6.713128099916503	0.033621500013396144
1	2.4856154000153765	stim	13		2	unambiguous	right	preferred	67.0	0.0		6.746749599929899	0.03313590004108846
1	2.518751300056465	stim	14		2	unambiguous	right	preferred	67.0	0.0		6.779885499970987	0.03333429992198944
1	2.5520855999784544	stim	15		2	unambiguous	right	preferred	67.0	0.0		6.813219799892977	0.03331270010676235
1	2.5853983000852168	stim	16		2	unambiguous	right	preferred	67.0	0.0		6.846532499999739	0.0333406999707222
1	2.618739000055939	stim	17		2	unambiguous	right	preferred	67.0	0.0		6.879873199970461	0.03337319998536259
1	2.6521122000413015	stim	18		2	unambiguous	right	preferred	67.0	0.0		6.913246399955824	0.03371240000706166
1	2.685824600048363	stim	19		2	unambiguous	right	preferred	67.0	0.0		6.946958799962886	0.03355649998411536
1	2.7193811000324786	stim	20		2	unambiguous	right	preferred	67.0	0.0		6.980515299947001	0.033299600007012486
1	2.752680700039491	stim	21		2	unambiguous	right	preferred	67.0	0.0		7.0138148999540135	0.03342089999932796
1	2.786101600038819	stim	22		2	unambiguous	right	preferred	67.0	0.0		7.0472357999533415	0.033724899985827506
1	2.8198265000246465	stim	23		2	unambiguous	right	preferred	67.0	0.0		7.080960699939169	0.03334460000041872
1	2.8531711000250652	stim	24		2	unambiguous	right	preferred	67.0	0.0		7.114305299939588	0.033532500034198165
1	2.8867036000592634	stim	25		2	unambiguous	right	preferred	67.0	0.0		7.147837799973786	0.03345440002158284
1	2.9201580000808463	stim	26		2	unambiguous	right	preferred	67.0	0.0		7.181292199995369	0.033218199969269335
1	2.9533762000501156	stim	27		2	unambiguous	right	preferred	67.0	0.0		7.214510399964638	0.03334369999356568
1	2.9867199000436813	stim	28		2	unambiguous	right	preferred	67.0	0.0		7.247854099958204	0.03332729998510331
1	3.0200472000287846	stim	29		2	unambiguous	right	preferred	67.0	0.0		7.281181399943307	0.03384459996595979
1	3.0538917999947444	stim	30		2	unambiguous	right	preferred	67.0	0.0		7.315025999909267	0.0333284999942407
1	3.087220299988985	stim	31		2	unambiguous	right	preferred	67.0	0.0		7.3483544999035075	0.03354199999012053
1	3.1207622999791056	stim	32		2	unambiguous	right	preferred	67.0	0.0		7.381896499893628	0.0332240000134334
1	3.153986299992539	stim	33		2	unambiguous	right	preferred	67.0	0.0		7.4151204999070615	0.03367750009056181
1	3.187663800083101	stim	34		2	unambiguous	right	preferred	67.0	0.0		7.448797999997623	0.033364999922923744
1	3.2210288000060245	stim	35		2	unambiguous	right	preferred	67.0	0.0		7.482162999920547	0.03331410000100732
1	3.254342900007032	stim	36		2	unambiguous	right	preferred	67.0	0.0		7.515477099921554	0.03331660002004355
1	3.2876595000270754	stim	37		2	unambiguous	right	preferred	67.0	0.0		7.548793699941598	0.033604800002649426
1	3.321264300029725	stim	38		2	unambiguous	right	preferred	67.0	0.0		7.582398499944247	0.03334680001717061
1	3.3546111000468954	stim	39		2	unambiguous	right	preferred	67.0	0.0		7.615745299961418	0.03364099992904812
1	3.3882520999759436	stim	40		2	unambiguous	right	preferred	67.0	0.0		7.649386299890466	0.033723600092343986
1	3.4219757000682876	stim	41		2	unambiguous	right	preferred	67.0	0.0		7.68310989998281	0.03333699994254857
1	3.455312700010836	stim	42		2	unambiguous	right	preferred	67.0	0.0		7.716446899925359	0.03342520003207028
1	3.4887379000429064	stim	43		2	unambiguous	right	preferred	67.0	0.0		7.749872099957429	0.03365719993598759
1	3.522395099978894	stim	44		2	unambiguous	right	preferred	67.0	0.0		7.7835292998934165	0.03382470004726201
1	3.556219800026156	stim	45		2	unambiguous	right	preferred	67.0	0.0		7.8173539999406785	0.033969599986448884
1	3.590189400012605	stim	46		2	unambiguous	right	preferred	67.0	0.0		7.851323599927127	0.03388110001105815
1	3.624070500023663	stim	47		2	unambiguous	right	preferred	67.0	0.0		7.8852046999381855	0.03361479996237904
1	3.657685299986042	stim	48		2	unambiguous	right	preferred	67.0	0.0		7.9188194999005646	0.03349500009790063
1	3.6911803000839427	stim	49		2	unambiguous	right	preferred	67.0	0.0		7.952314499998465	0.03328319999855012
1	3.724463500082493	stim	50		2	unambiguous	right	preferred	67.0	0.0		7.985597699997015	0.03356089990120381
1	3.7580243999836966	stim	51		2	unambiguous	right	preferred	67.0	0.0		8.019158599898219	0.033973900019191206
1	3.791998300002888	stim	52		2	unambiguous	right	preferred	67.0	0.0		8.05313249991741	0.03335220005828887
1	3.8253505000611767	stim	53		2	unambiguous	right	preferred	67.0	0.0		8.0864846999757	0.033700999920256436
1	3.859051499981433	stim	54		2	unambiguous	right	preferred	67.0	0.0		8.120185699895956	0.03377420001197606
1	3.892825699993409	stim	55		2	unambiguous	right	preferred	67.0	0.0		8.153959899907932	0.03356150002218783
1	3.926387200015597	stim	56		2	unambiguous	right	preferred	67.0	0.0		8.18752139993012	0.03330929996445775
1	3.959696499980055	stim	57		2	unambiguous	right	preferred	67.0	0.0		8.220830699894577	0.03338840010110289
1	3.9930849000811577	stim	58		2	unambiguous	right	preferred	67.0	0.0		8.25421909999568	0.033496799995191395
1	4.026581700076349	stim	59		2	unambiguous	right	preferred	67.0	0.0		8.287715899990872	0.03336589992977679
1	4.059947600006126	stim	60		2	unambiguous	right	preferred	67.0	0.0		8.321081799920648	0.03391050000209361
1	4.0938581000082195	stim	61		2	unambiguous	right	preferred	67.0	0.0		8.354992299922742	0.049944299971684813
1	4.143802399979904	stim	62		2	unambiguous	right	preferred	67.0	0.0		8.404936599894427	0.0332862000213936
1	4.177088600001298	stim	63		2	unambiguous	right	preferred	67.0	0.0		8.43822279991582	0.03370979998726398
1	4.210798399988562	stim	64		2	unambiguous	right	preferred	67.0	0.0		8.471932599903084	0.033396100043319166
1	4.244194500031881	stim	65		2	unambiguous	right	preferred	67.0	0.0		8.505328699946404	0.03316590003669262
1	4.277360400068574	stim	66		2	unambiguous	right	preferred	67.0	0.0		8.538494599983096	0.033755999989807606
2	4.311116400058381	stim	0		2	unambiguous	left	preferred	67.0	67.0		8.572250599972904	0.03326179995201528
2	4.3443782000103965	stim	1		2	unambiguous	left	preferred	67.0	67.0		8.605512399924919	0.033467100001871586
2	4.377845300012268	stim	2		2	unambiguous	left	preferred	67.0	67.0		8.63897949992679	0.0331607999978587
2	4.411006100010127	stim	3		2	unambiguous	left	preferred	67.0	67.0		8.67214029992465	0.03341889998409897
2	4.444424999994226	stim	4		2	unambiguous	left	preferred	67.0	67.0		8.705559199908748	0.03334219998214394
2	4.47776719997637	stim	5		2	unambiguous	left	preferred	67.0	67.0		8.738901399890892	0.03404280007816851
2	4.511810000054538	stim	6		2	unambiguous	left	preferred	67.0	67.0		8.77294419996906	0.033532400033436716
2	4.545342400087975	stim	7		2	unambiguous	left	preferred	67.0	67.0		8.806476600002497	0.033438699902035296
2	4.57878109999001	stim	8		2	unambiguous	left	preferred	67.0	67.0		8.839915299904533	0.03346609999425709
2	4.612247199984267	stim	9		2	unambiguous	left	preferred	67.0	67.0		8.87338139989879	0.033455400029197335
2	4.645702600013465	stim	10		2	unambiguous	left	preferred	67.0	67.0		8.906836799927987	0.03333300002850592
2	4.679035600041971	stim	11		2	unambiguous	left	preferred	67.0	67.0		8.940169799956493	0.03340690000914037
2	4.712442500051111	stim	12		2	unambiguous	left	preferred	67.0	67.0		8.973576699965633	0.0336010999744758
2	4.746043600025587	stim	13		2	unambiguous	left	preferred	67.0	67.0		9.00717779994011	0.03338889998849481
2	4.779432500014082	stim	14		2	unambiguous	left	preferred	67.0	67.0		9.040566699928604	0.033520700060762465
2	4.812953200074844	stim	15		2	unambiguous	left	preferred	67.0	67.0		9.074087399989367	0.033367899945005774
2	4.84632110001985	stim	16		2	unambiguous	left	preferred	67.0	67.0		9.107455299934372	0.033450699993409216
2	4.879771800013259	stim	17		2	unambiguous	left	preferred	67.0	67.0		9.140905999927782	0.033558900002390146
2	4.913330700015649	stim	18		2	unambiguous	left	preferred	67.0	67.0		9.174464899930172	0.033351700054481626
2	4.946682400070131	stim	19		2	unambiguous	left	preferred	67.0	67.0		9.207816599984653	0.03519689990207553
2	4.981879299972206	stim	20		2	unambiguous	left	preferred	67.0	67.0		9.243013499886729	0.033343200106173754
2	5.01522250007838	stim	21		2	unambiguous	left	preferred	67.0	67.0		9.276356699992903	0.03348250000271946
2	5.0487050000811	stim	22		2	unambiguous	left	preferred	67.0	67.0		9.309839199995622	0.03320569999050349
2	5.081910700071603	stim	23		2	unambiguous	left	preferred	67.0	67.0		9.343044899986126	0.04995529993902892
2	5.131866000010632	stim	24		2	unambiguous	left	preferred	67.0	67.0		9.393000199925154	0.03335629997309297
2	5.165222299983725	stim	25		2	unambiguous	left	preferred	67.0	67.0		9.426356499898247	0.03338650008663535
2	5.19860880007036	stim	26		2	unambiguous	left	preferred	67.0	67.0		9.459742999984883	0.03333719994407147
2	5.231946000014432	stim	27		2	unambiguous	left	preferred	67.0	67.0		9.493080199928954	0.03329309995751828
2	5.26523909997195	stim	28		2	unambiguous	left	preferred	67.0	67.0		9.526373299886473	0.033292400068603456
2	5.2985315000405535	stim	29		2	unambiguous	left	preferred	67.0	67.0		9.559665699955076	0.0335191999329254
2	5.332050699973479	stim	30		2	unambiguous	left	preferred	67.0	67.0		9.593184899888001	0.033571100095286965
2	5.365621800068766	stim	31		2	unambiguous	left	preferred	67.0	67.0		9.626755999983288	0.03325320000294596
2	5.398875000071712	stim	32		2	unambiguous	left	preferred	67.0	67.0		9.660009199986234	0.03341129992622882
2	5.432286299997941	stim	33		2	unambiguous	left	preferred	67.0	67.0		9.693420499912463	0.033677699975669384
2	5.46596399997361	stim	34		2	unambiguous	left	preferred	67.0	67.0		9.727098199888133	0.033686600043438375
2	5.499650600017048	stim	35		2	unambiguous	left	preferred	67.0	67.0		9.76078479993157	0.03338489995803684
2	5.533035499975085	stim	36		2	unambiguous	left	preferred	67.0	67.0		9.794169699889608	0.033892500097863376
2	5.566928000072949	stim	37		2	unambiguous	left	preferred	67.0	67.0		9.828062199987471	0.033758900011889637
2	5.600686900084838	stim	38		2	unambiguous	left	preferred	67.0	67.0		9.86182109999936	0.04986169992480427
2	5.6505486000096425	stim	39		2	unambiguous	left	preferred	67.0	67.0		9.911682799924165	0.03308309998828918
2	5.683631699997932	stim	40		2	unambiguous	left	preferred	67.0	67.0		9.944765899912454	0.034064100007526577
2	5.717695800005458	stim	41		2	unambiguous	left	preferred	67.0	67.0		9.97882999991998	0.03333040000870824
2	5.7510262000141665	stim	42		2	unambiguous	left	preferred	67.0	67.0		10.012160399928689	0.03332320007029921
2	5.784349400084466	stim	43		2	unambiguous	left	preferred	67.0	67.0		10.045483599998988	0.033567999955266714
2	5.8179174000397325	stim	44		2	unambiguous	left	preferred	67.0	67.0		10.079051599954255	0.033352999947965145
2	5.851270399987698	stim	45		2	unambiguous	left	preferred	67.0	67.0		10.11240459990222	0.03348470001947135
2	5.884755100007169	stim	46		2	unambiguous	left	preferred	67.0	67.0		10.145889299921691	0.03353740007150918
2	5.918292500078678	stim	47		2	unambiguous	left	preferred	67.0	67.0		10.1794266999932	0.03345789993181825
2	5.951750400010496	stim	48		2	unambiguous	left	preferred	67.0	67.0		10.212884599925019	0.033659900072962046
2	5.985410300083458	stim	49		2	unambiguous	left	preferred	67.0	67.0		10.246544499997981	0.0334144999505952
2	6.018824800034054	stim	50		2	unambiguous	left	preferred	67.0	67.0		10.279958999948576	0.04980539996176958
2	6.068630199995823	stim	51		2	unambiguous	left	preferred	67.0	67.0		10.329764399910346	0.03333420003764331
2	6.1019644000334665	stim	52		2	unambiguous	left	preferred	67.0	67.0		10.363098599947989	0.033695399994030595
2	6.135659800027497	stim	53		2	unambiguous	left	preferred	67.0	67.0		10.39679399994202	0.03360460000112653
2	6.169264400028624	stim	54		2	unambiguous	left	preferred	67.0	67.0		10.430398599943146	0.03333520004525781
2	6.2025996000738814	stim	55		2	unambiguous	left	preferred	67.0	67.0		10.463733799988404	0.03329890000168234
2	6.235898500075564	stim	56		2	unambiguous	left	preferred	67.0	67.0		10.497032699990086	0.03363979991991073
2	6.2695382999954745	stim	57		2	unambiguous	left	preferred	67.0	67.0		10.530672499909997	0.033428900060243905
2	6.302967200055718	stim	58		2	unambiguous	left	preferred	67.0	67.0		10.564101399970241	0.03330619994085282
2	6.336273399996571	stim	59		2	unambiguous	left	preferred	67.0	67.0		10.597407599911094	0.03363090008497238
2	6.369904300081544	stim	60		2	unambiguous	left	preferred	67.0	67.0		10.631038499996066	0.03331069997511804
2	6.403215000056662	stim	61		2	unambiguous	left	preferred	67.0	67.0		10.664349199971184	0.03329149994533509
2	6.436506500001997	stim	62		2	unambiguous	left	preferred	67.0	67.0		10.69764069991652	0.0337254999903962
2	6.470231999992393	stim	63		2	unambiguous	left	preferred	67.0	67.0		10.731366199906915	0.033302900032140315
2	6.503534900024533	stim	64		2	unambiguous	left	preferred	67.0	67.0		10.764669099939056	0.03353779995813966
2	6.537072699982673	stim	65		2	unambiguous	left	preferred	67.0	67.0		10.798206899897195	0.033351800055243075
2	6.570424500037916	stim	66		2	unambiguous	left	preferred	67.0	67.0		10.831558699952438	0.03380229999311268
3	6.604226800031029	stim	0		2	unambiguous	right	preferred	71.0	134.0		10.865360999945551	0.033345800009556115
3	6.637572600040585	stim	1		2	unambiguous	right	preferred	71.0	134.0		10.898706799955107	0.03373050002846867
3	6.6713031000690535	stim	2		2	unambiguous	right	preferred	71.0	134.0		10.932437299983576	0.033287799917161465
3	6.704590899986215	stim	3		2	unambiguous	right	preferred	71.0	134.0		10.965725099900737	0.03373780008405447
3	6.738328700070269	stim	4		2	unambiguous	right	preferred	71.0	134.0		10.999462899984792	0.032974399975501
3	6.77130310004577	stim	5		2	unambiguous	right	preferred	71.0	134.0		11.032437299960293	0.03379419993143529
3	6.805097299977206	stim	6		2	unambiguous	right	preferred	71.0	134.0		11.066231499891728	0.033341300091706216
3	6.838438600068912	stim	7		2	unambiguous	right	preferred	71.0	134.0		11.099572799983434	0.033529400010593235
3	6.871968000079505	stim	8		2	unambiguous	right	preferred	71.0	134.0		11.133102199994028	0.03331949992571026
3	6.905287500005215	stim	9		2	unambiguous	right	preferred	71.0	134.0		11.166421699919738	0.033876299974508584
3	6.939163799979724	stim	10		2	unambiguous	right	preferred	71.0	134.0		11.200297999894246	0.033350100042298436
3	6.972513900022022	stim	11		2	unambiguous	right	preferred	71.0	134.0		11.233648099936545	0.03336300002411008
3	7.0058769000461325	stim	12		2	unambiguous	right	preferred	71.0	134.0		11.267011099960655	0.0332894999301061
3	7.039166399976239	stim	13		2	unambiguous	right	preferred	71.0	134.0		11.300300599890761	0.03355710010509938
3	7.072723500081338	stim	14		2	unambiguous	right	preferred	71.0	134.0		11.33385769999586	0.03381419996730983
3	7.106537700048648	stim	15		2	unambiguous	right	preferred	71.0	134.0		11.36767189996317	0.03370080003514886
3	7.140238500083797	stim	16		2	unambiguous	right	preferred	71.0	134.0		11.40137269999832	0.033369299955666065
3	7.173607800039463	stim	17		2	unambiguous	right	preferred	71.0	134.0		11.434741999953985	0.033382699941284955
3	7.206990499980748	stim	18		2	unambiguous	right	preferred	71.0	134.0		11.46812469989527	0.033504400053061545
3	7.240494900033809	stim	19		2	unambiguous	right	preferred	71.0	134.0		11.501629099948332	0.03315280005335808
3	7.273647700087167	stim	20		2	unambiguous	right	preferred	71.0	134.0		11.53478190000169	0.033287899917922914
3	7.30693560000509	stim	21		2	unambiguous	right	preferred	71.0	134.0		11.568069799919613	0.03349910001270473
3	7.340434700017795	stim	22		2	unambiguous	right	preferred	71.0	134.0		11.601568899932317	0.03369900002144277
3	7.374133700039238	stim	23		2	unambiguous	right	preferred	71.0	134.0		11.63526789995376	0.033258300041779876
3	7.407392000081018	stim	24		2	unambiguous	right	preferred	71.0	134.0		11.66852619999554	0.03329429996665567
3	7.440686300047673	stim	25		2	unambiguous	right	preferred	71.0	134.0		11.701820499962196	0.033342799986712635
3	7.474029100034386	stim	26		2	unambiguous	right	preferred	71.0	134.0		11.735163299948908	0.03383650002069771
3	7.507865600055084	stim	27		2	unambiguous	right	preferred	71.0	134.0		11.768999799969606	0.03336280002258718
3	7.541228400077671	stim	28		2	unambiguous	right	preferred	71.0	134.0		11.802362599992193	0.033443499938584864
3	7.574671900016256	stim	29		2	unambiguous	right	preferred	71.0	134.0		11.835806099930778	0.03342760005034506
3	7.608099500066601	stim	30		2	unambiguous	right	preferred	71.0	134.0		11.869233699981123	0.03341729997191578
3	7.6415168000385165	stim	31		2	unambiguous	right	preferred	71.0	134.0		11.902650999953039	0.03373879997525364
3	7.67525560001377	stim	32		2	unambiguous	right	preferred	71.0	134.0		11.936389799928293	0.03395710000768304
3	7.709212700021453	stim	33		2	unambiguous	right	preferred	71.0	134.0		11.970346899935976	0.033148800022900105
3	7.742361500044353	stim	34		2	unambiguous	right	preferred	71.0	134.0		12.003495699958876	0.03325780003797263
3	7.775619300082326	stim	35		2	unambiguous	right	preferred	71.0	134.0		12.036753499996848	0.033609199919737875
3	7.809228500002064	stim	36		2	unambiguous	right	preferred	71.0	134.0		12.070362699916586	0.03328279999550432
3	7.842511299997568	stim	37		2	unambiguous	right	preferred	71.0	134.0		12.10364549991209	0.03369880001991987
3	7.876210100017488	stim	38		2	unambiguous	right	preferred	71.0	134.0		12.13734429993201	0.03335000004153699
3	7.909560100059025	stim	39		2	unambiguous	right	preferred	71.0	134.0		12.170694299973547	0.033832999994046986
3	7.943393100053072	stim	40		2	unambiguous	right	preferred	71.0	134.0		12.204527299967594	0.033101400011219084
3	7.976494500064291	stim	41		2	unambiguous	right	preferred	71.0	134.0		12.237628699978814	0.03346049995161593
3	8.009955000015907	stim	42		2	unambiguous	right	preferred	71.0	134.0		12.27108919993043	0.03323569998610765
3	8.043190700002015	stim	43		2	unambiguous	right	preferred	71.0	134.0		12.304324899916537	0.033603399991989136
3	8.076794099994004	stim	44		2	unambiguous	right	preferred	71.0	134.0		12.337928299908526	0.03330460004508495
3	8.110098700039089	stim	45		2	unambiguous	right	preferred	71.0	134.0		12.371232899953611	0.03347929997835308
3	8.143578000017442	stim	46		2	unambiguous	right	preferred	71.0	134.0		12.404712199931964	0.03351119998842478
3	8.177089200005867	stim	47		2	unambiguous	right	preferred	71.0	134.0		12.438223399920389	0.03342340001836419
3	8.21051260002423	stim	48		2	unambiguous	right	preferred	71.0	134.0		12.471646799938753	0.03340539999771863
3	8.24391800002195	stim	49		2	unambiguous	right	preferred	71.0	134.0		12.505052199936472	0.03354249999392778
3	8.277460500015877	stim	50		2	unambiguous	right	preferred	71.0	134.0		12.5385946999304	0.033317500026896596
3	8.310778000042774	stim	51		2	unambiguous	right	preferred	71.0	134.0		12.571912199957296	0.03370299993548542
3	8.34448099997826	stim	52		2	unambiguous	right	preferred	71.0	134.0		12.605615199892782	0.03316720004659146
3	8.37764820002485	stim	53		2	unambiguous	right	preferred	71.0	134.0		12.638782399939373	0.03355519997421652
3	8.411203399999067	stim	54		2	unambiguous	right	preferred	71.0	134.0		12.67233759991359	0.03339280001819134
3	8.444596200017259	stim	55		2	unambiguous	right	preferred	71.0	134.0		12.705730399931781	0.033255500020459294
3	8.477851700037718	stim	56		2	unambiguous	right	preferred	71.0	134.0		12.73898589995224	0.033803600003011525
3	8.51165530004073	stim	57		2	unambiguous	right	preferred	71.0	134.0		12.772789499955252	0.05016280000563711
3	8.561818100046366	stim	58		2	unambiguous	right	preferred	71.0	134.0		12.822952299960889	0.03323069994803518
3	8.595048799994402	stim	59		2	unambiguous	right	preferred	71.0	134.0		12.856182999908924	0.03342670004349202
3	8.628475500037894	stim	60		2	unambiguous	right	preferred	71.0	134.0		12.889609699952416	0.03339520003646612
3	8.66187070007436	stim	61		2	unambiguous	right	preferred	71.0	134.0		12.923004899988882	0.03344439994543791
3	8.695315100019798	stim	62		2	unambiguous	right	preferred	71.0	134.0		12.95644929993432	0.0333484000293538
3	8.728663500049151	stim	63		2	unambiguous	right	preferred	71.0	134.0		12.989797699963674	0.03364699997473508
3	8.762310500023887	stim	64		2	unambiguous	right	preferred	71.0	134.0		13.023444699938409	0.03338749997783452
3	8.795698000001721	stim	65		2	unambiguous	right	preferred	71.0	134.0		13.056832199916244	0.033467400004155934
3	8.829165400005877	stim	66		2	unambiguous	right	preferred	71.0	134.0		13.0902995999204	0.03340149996802211
3	8.8625668999739	stim	67		2	unambiguous	right	preferred	71.0	134.0		13.123701099888422	0.03346350009087473
3	8.896030400064774	stim	68		2	unambiguous	right	preferred	71.0	134.0		13.157164599979296	0.033308399957604706
3	8.929338800022379	stim	69		2	unambiguous	right	preferred	71.0	134.0		13.190472999936901	0.03335130005143583
3	8.962690100073814	stim	70		2	unambiguous	right	preferred	71.0	134.0		13.223824299988337	0.033713300013914704
4	8.996403400087729	stim	0		2	unambiguous	left	preferred	70.0	15.0		13.257537600002252	0.03337899991311133
4	9.02978240000084	stim	1		2	unambiguous	left	preferred	70.0	15.0		13.290916599915363	0.034997700015082955
4	9.064780100015923	stim	2		2	unambiguous	left	preferred	70.0	15.0		13.325914299930446	0.031780999968759716
4	9.096561099984683	stim	3		2	unambiguous	left	preferred	70.0	15.0		13.357695299899206	0.035135500016622245
4	9.131696600001305	stim	4		2	unambiguous	left	preferred	70.0	15.0		13.392830799915828	0.03348600002937019
4	9.165182600030676	stim	5		2	unambiguous	left	preferred	70.0	15.0		13.426316799945198	0.03377470001578331
4	9.198957300046459	stim	6		2	unambiguous	left	preferred	70.0	15.0		13.460091499960981	0.03284130000974983
4	9.231798600056209	stim	7		2	unambiguous	left	preferred	70.0	15.0		13.492932799970731	0.033360600005835295
4	9.265159200062044	stim	8		2	unambiguous	left	preferred	70.0	15.0		13.526293399976566	0.03332399995997548
4	9.29848320002202	stim	9		2	unambiguous	left	preferred	70.0	15.0		13.559617399936542	0.033550400054082274
4	9.332033600076102	stim	10		2	unambiguous	left	preferred	70.0	15.0		13.593167799990624	0.03378959989640862
4	9.36582319997251	stim	11		2	unambiguous	left	preferred	70.0	15.0		13.626957399887033	0.033682100009173155
4	9.399505299981683	stim	12		2	unambiguous	left	preferred	70.0	15.0		13.660639499896206	0.03413670009467751
4	9.433642000076361	stim	13		2	unambiguous	left	preferred	70.0	15.0		13.694776199990883	0.0333400999661535
4	9.466982100042515	stim	14		2	unambiguous	left	preferred	70.0	15.0		13.728116299957037	0.033312899991869926
4	9.500295000034384	stim	15		2	unambiguous	left	preferred	70.0	15.0		13.761429199948907	0.03334470000118017
4	9.533639700035565	stim	16		2	unambiguous	left	preferred	70.0	15.0		13.794773899950087	0.03352719999384135
4	9.567166900029406	stim	17		2	unambiguous	left	preferred	70.0	15.0		13.828301099943928	0.03362909995485097
4	9.600795999984257	stim	18		2	unambiguous	left	preferred	70.0	15.0		13.86193019989878	0.03337600000668317
4	9.63417199999094	stim	19		2	unambiguous	left	preferred	70.0	15.0		13.895306199905463	0.03333340003155172
4	9.667505400022492	stim	20		2	unambiguous	left	preferred	70.0	15.0		13.928639599937014	0.03343700000550598
4	9.700942400027998	stim	21		2	unambiguous	left	preferred	70.0	15.0		13.96207659994252	0.0337139000184834
4	9.734656300046481	stim	22		2	unambiguous	left	preferred	70.0	15.0		13.995790499961004	0.033536599949002266
4	9.768192899995483	stim	23		2	unambiguous	left	preferred	70.0	15.0		14.029327099910006	0.03323830000590533
4	9.801431200001389	stim	24		2	unambiguous	left	preferred	70.0	15.0		14.062565399915911	0.033285000012256205
4	9.834716200013645	stim	25		2	unambiguous	left	preferred	70.0	15.0		14.095850399928167	0.033368000062182546
4	9.868084200075828	stim	26		2	unambiguous	left	preferred	70.0	15.0		14.12921839999035	0.03394939994905144
4	9.902033600024879	stim	27		2	unambiguous	left	preferred	70.0	15.0		14.163167799939401	0.03312310006003827
4	9.935156700084917	stim	28		2	unambiguous	left	preferred	70.0	15.0		14.19629089999944	0.033935399958863854
4	9.969092100043781	stim	29		2	unambiguous	left	preferred	70.0	15.0		14.230226299958304	0.03346479998435825
4	10.00255690002814	stim	30		2	unambiguous	left	preferred	70.0	15.0		14.263691099942662	0.03326149994973093
4	10.03581839997787	stim	31		2	unambiguous	left	preferred	70.0	15.0		14.296952599892393	0.0333484000293538
4	10.069166800007224	stim	32		2	unambiguous	left	preferred	70.0	15.0		14.330300999921747	0.033626000047661364
4	10.102792800054885	stim	33		2	unambiguous	left	preferred	70.0	15.0		14.363926999969408	0.03427209996152669
4	10.137064900016412	stim	34		2	unambiguous	left	preferred	70.0	15.0		14.398199099930935	0.033089600037783384
4	10.170154500054196	stim	35		2	unambiguous	left	preferred	70.0	15.0		14.431288699968718	0.03326990001369268
4	10.203424400067888	stim	36		2	unambiguous	left	preferred	70.0	15.0		14.46455859998241	0.0333833999466151
4	10.236807800014503	stim	37		2	unambiguous	left	preferred	70.0	15.0		14.497941999929026	0.033680399996228516
4	10.270488200010732	stim	38		2	unambiguous	left	preferred	70.0	15.0		14.531622399925254	0.03397140000015497
4	10.304459600010887	stim	39		2	unambiguous	left	preferred	70.0	15.0		14.56559379992541	0.03349900001194328
4	10.33795860002283	stim	40		2	unambiguous	left	preferred	70.0	15.0		14.599092799937353	0.03313750005327165
4	10.371096100076102	stim	41		2	unambiguous	left	preferred	70.0	15.0		14.632230299990624	0.03368859994225204
4	10.404784700018354	stim	42		2	unambiguous	left	preferred	70.0	15.0		14.665918899932876	0.0339675999712199
4	10.438752299989574	stim	43		2	unambiguous	left	preferred	70.0	15.0		14.699886499904096	0.03354910004418343
4	10.472301400033757	stim	44		2	unambiguous	left	preferred	70.0	15.0		14.73343559994828	0.033298299997113645
4	10.50559970003087	stim	45		2	unambiguous	left	preferred	70.0	15.0		14.766733899945393	0.03352259995881468
4	10.539122299989685	stim	46		2	unambiguous	left	preferred	70.0	15.0		14.800256499904208	0.03331219998653978
4	10.572434499976225	stim	47		2	unambiguous	left	preferred	70.0	15.0		14.833568699890748	0.03343530010897666
4	10.605869800085202	stim	48		2	unambiguous	left	preferred	70.0	15.0		14.867003999999724	0.03390489995945245
4	10.639774700044654	stim	49		2	unambiguous	left	preferred	70.0	15.0		14.900908899959177	0.03322500002104789
4	10.672999700065702	stim	50		2	unambiguous	left	preferred	70.0	15.0		14.934133899980225	0.03326930000912398
4	10.706269000074826	stim	51		2	unambiguous	left	preferred	70.0	15.0		14.967403199989349	0.03346609999425709
4	10.739735100069083	stim	52		2	unambiguous	left	preferred	70.0	15.0		15.000869299983606	0.03366899990942329
4	10.773404099978507	stim	53		2	unambiguous	left	preferred	70.0	15.0		15.034538299893029	0.03366539999842644
4	10.807069499976933	stim	54		2	unambiguous	left	preferred	70.0	15.0		15.068203699891455	0.03389210009481758
4	10.84096160007175	stim	55		2	unambiguous	left	preferred	70.0	15.0		15.102095799986273	0.03388899995479733
4	10.874850600026548	stim	56		2	unambiguous	left	preferred	70.0	15.0		15.13598479994107	0.03332010004669428
4	10.908170700073242	stim	57		2	unambiguous	left	preferred	70.0	15.0		15.169304899987765	0.0340602999785915
4	10.942231000051834	stim	58		2	unambiguous	left	preferred	70.0	15.0		15.203365199966356	0.03301859996281564
4	10.97524960001465	stim	59		2	unambiguous	left	preferred	70.0	15.0		15.236383799929172	0.03401140007190406
4	11.009261000086553	stim	60		2	unambiguous	left	preferred	70.0	15.0		15.270395200001076	0.033603699994273484
4	11.042864700080827	stim	61		2	unambiguous	left	preferred	70.0	15.0		15.30399889999535	0.03335819998756051
4	11.076222900068387	stim	62		2	unambiguous	left	preferred	70.0	15.0		15.33735709998291	0.03338929999154061
4	11.109612200059928	stim	63		2	unambiguous	left	preferred	70.0	15.0		15.37074639997445	0.033592899912036955
4	11.143205099971965	stim	64		2	unambiguous	left	preferred	70.0	15.0		15.404339299886487	0.033172700088471174
4	11.176377800060436	stim	65		2	unambiguous	left	preferred	70.0	15.0		15.437511999974959	0.03332369995769113
4	11.209701500018127	stim	66		2	unambiguous	left	preferred	70.0	15.0		15.47083569993265	0.03394480003044009
4	11.243646300048567	stim	67		2	unambiguous	left	preferred	70.0	15.0		15.50478049996309	0.03341289993841201
4	11.27705919998698	stim	68		2	unambiguous	left	preferred	70.0	15.0		15.538193399901502	0.0332549000158906
4	11.31031410000287	stim	69		2	unambiguous	left	preferred	70.0	15.0		15.571448299917392	0.03338939999230206
5	11.343703499995172	stim	0		2	unambiguous	right	preferred	67.0	85.0		15.604837699909694	0.03376460005529225
5	11.377468100050464	stim	1		2	unambiguous	right	preferred	67.0	85.0		15.638602299964987	0.03351410001050681
5	11.410982200060971	stim	2		2	unambiguous	right	preferred	67.0	85.0		15.672116399975494	0.03356909996364266
5	11.444551300024614	stim	3		2	unambiguous	right	preferred	67.0	85.0		15.705685499939136	0.0333288999972865
5	11.4778802000219	stim	4		2	unambiguous	right	preferred	67.0	85.0		15.739014399936423	0.033608200028538704
5	11.511488400050439	stim	5		2	unambiguous	right	preferred	67.0	85.0		15.772622599964961	0.03372870001476258
5	11.545217100065202	stim	6		2	unambiguous	right	preferred	67.0	85.0		15.806351299979724	0.03338919999077916
5	11.57860630005598	stim	7		2	unambiguous	right	preferred	67.0	85.0		15.839740499970503	0.033443299937061965
5	11.612049599993043	stim	8		2	unambiguous	right	preferred	67.0	85.0		15.873183799907565	0.033449399983510375
5	11.645498999976553	stim	9		2	unambiguous	right	preferred	67.0	85.0		15.906633199891075	0.03332240006420761
5	11.67882140004076	stim	10		2	unambiguous	right	preferred	67.0	85.0		15.939955599955283	0.0339436000213027
5	11.712765000062063	stim	11		2	unambiguous	right	preferred	67.0	85.0		15.973899199976586	0.03385599993634969
5	11.746620999998413	stim	12		2	unambiguous	right	preferred	67.0	85.0		16.007755199912935	0.03307520004455
5	11.779696200042963	stim	13		2	unambiguous	right	preferred	67.0	85.0		16.040830399957485	0.033549899933859706
5	11.813246099976823	stim	14		2	unambiguous	right	preferred	67.0	85.0		16.074380299891345	0.0348742000060156
5	11.848120299982838	stim	15		2	unambiguous	right	preferred	67.0	85.0		16.10925449989736	0.033730800030753016
5	11.881851100013591	stim	16		2	unambiguous	right	preferred	67.0	85.0		16.142985299928114	0.03345300001092255
5	11.915304100024514	stim	17		2	unambiguous	right	preferred	67.0	85.0		16.176438299939036	0.033132200012914836
5	11.948436300037429	stim	18		2	unambiguous	right	preferred	67.0	85.0		16.20957049995195	0.033391500008292496
5	11.981827800045721	stim	19		2	unambiguous	right	preferred	67.0	85.0		16.242961999960244	0.03322250000201166
5	12.015050300047733	stim	20		2	unambiguous	right	preferred	67.0	85.0		16.276184499962255	0.03332429996225983
5	12.048374600009993	stim	21		2	unambiguous	right	preferred	67.0	85.0		16.309508799924515	0.03338839998468757
5	12.08176299999468	stim	22		2	unambiguous	right	preferred	67.0	85.0		16.342897199909203	0.033369800075888634
5	12.115132800070569	stim	23		2	unambiguous	right	preferred	67.0	85.0		16.37626699998509	0.033461399958468974
5	12.148594200029038	stim	24		2	unambiguous	right	preferred	67.0	85.0		16.40972839994356	0.033662899979390204
5	12.182257100008428	stim	25		2	unambiguous	right	preferred	67.0	85.0		16.44339129992295	0.033154700067825615
5	12.215411800076254	stim	26		2	unambiguous	right	preferred	67.0	85.0		16.476545999990776	0.033361599897034466
5	12.248773399973288	stim	27		2	unambiguous	right	preferred	67.0	85.0		16.50990759988781	0.03384430008009076
5	12.282617700053379	stim	28		2	unambiguous	right	preferred	67.0	85.0		16.5437518999679	0.03391050000209361
5	12.316528200055473	stim	29		2	unambiguous	right	preferred	67.0	85.0		16.577662399969995	0.03362639993429184
5	12.350154599989764	stim	30		2	unambiguous	right	preferred	67.0	85.0		16.611288799904287	0.03324140002951026
5	12.383396000019275	stim	31		2	unambiguous	right	preferred	67.0	85.0		16.644530199933797	0.03338909999001771
5	12.416785100009292	stim	32		2	unambiguous	right	preferred	67.0	85.0		16.677919299923815	0.03356690006330609
5	12.450352000072598	stim	33		2	unambiguous	right	preferred	67.0	85.0		16.71148619998712	0.033619900001212955
5	12.483971900073811	stim	34		2	unambiguous	right	preferred	67.0	85.0		16.745106099988334	0.033667400013655424
5	12.517639300087467	stim	35		2	unambiguous	right	preferred	67.0	85.0		16.77877350000199	0.033512999885715544
5	12.551152299973182	stim	36		2	unambiguous	right	preferred	67.0	85.0		16.812286499887705	0.03338630008511245
5	12.584538600058295	stim	37		2	unambiguous	right	preferred	67.0	85.0		16.845672799972817	0.03328119998332113
5	12.617819800041616	stim	38		2	unambiguous	right	preferred	67.0	85.0		16.87895399995614	0.03367669996805489
5	12.65149650000967	stim	39		2	unambiguous	right	preferred	67.0	85.0		16.912630699924193	0.0339432000182569
5	12.685439700027928	stim	40		2	unambiguous	right	preferred	67.0	85.0		16.94657389994245	0.03382520005106926
5	12.719264900078997	stim	41		2	unambiguous	right	preferred	67.0	85.0		16.98039909999352	0.033201899961568415
5	12.752466800040565	stim	42		2	unambiguous	right	preferred	67.0	85.0		17.013600999955088	0.033766199951060116
5	12.786232999991626	stim	43		2	unambiguous	right	preferred	67.0	85.0		17.047367199906148	0.033298299997113645
5	12.81953129998874	stim	44		2	unambiguous	right	preferred	67.0	85.0		17.08066549990326	0.03356440004426986
5	12.853095700033009	stim	45		2	unambiguous	right	preferred	67.0	85.0		17.11422989994753	0.03337009996175766
5	12.886465799994767	stim	46		2	unambiguous	right	preferred	67.0	85.0		17.14759999990929	0.03356030001305044
5	12.920026100007817	stim	47		2	unambiguous	right	preferred	67.0	85.0		17.18116029992234	0.03326820000074804
5	12.953294300008565	stim	48		2	unambiguous	right	preferred	67.0	85.0		17.214428499923088	0.03372890001628548
5	12.98702320002485	stim	49		2	unambiguous	right	preferred	67.0	85.0		17.248157399939373	0.03335489996243268
5	13.020378099987283	stim	50		2	unambiguous	right	preferred	67.0	85.0		17.281512299901806	0.0335232000797987
5	13.053901300067082	stim	51		2	unambiguous	right	preferred	67.0	85.0		17.315035499981605	0.03330929996445775
5	13.08721060003154	stim	52		2	unambiguous	right	preferred	67.0	85.0		17.348344799946062	0.033534200047142804
5	13.120744800078683	stim	53		2	unambiguous	right	preferred	67.0	85.0		17.381878999993205	0.033283400000073016
5	13.154028200078756	stim	54		2	unambiguous	right	preferred	67.0	85.0		17.415162399993278	0.0335508999414742
5	13.18757910002023	stim	55		2	unambiguous	right	preferred	67.0	85.0		17.448713299934752	0.03359929996076971
5	13.221178399981	stim	56		2	unambiguous	right	preferred	67.0	85.0		17.482312599895522	0.033922300091944635
5	13.255100700072944	stim	57		2	unambiguous	right	preferred	67.0	85.0		17.516234899987467	0.0333711999701336
5	13.288471900043078	stim	58		2	unambiguous	right	preferred	67.0	85.0		17.5496060999576	0.03361739998217672
5	13.322089300025254	stim	59		2	unambiguous	right	preferred	67.0	85.0		17.583223499939777	0.03340119996573776
5	13.355490499990992	stim	60		2	unambiguous	right	preferred	67.0	85.0		17.616624699905515	0.03375410009175539
5	13.389244600082748	stim	61		2	unambiguous	right	preferred	67.0	85.0		17.65037879999727	0.033333599916659296
5	13.422578199999407	stim	62		2	unambiguous	right	preferred	67.0	85.0		17.68371239991393	0.033344299998134375
5	13.455922499997541	stim	63		2	unambiguous	right	preferred	67.0	85.0		17.717056699912064	0.03360680001787841
5	13.48952930001542	stim	64		2	unambiguous	right	preferred	67.0	85.0		17.750663499929942	0.03354390000458807
5	13.523073200020008	stim	65		2	unambiguous	right	preferred	67.0	85.0		17.78420739993453	0.033309899969026446
5	13.556383099989034	stim	66		2	unambiguous	right	preferred	67.0	85.0		17.817517299903557	0.03317489998880774
6	13.589557999977842	stim	0		2	unambiguous	left	preferred	69.0	152.0		17.850692199892364	0.03373130003456026
6	13.623289300012402	stim	1		2	unambiguous	left	preferred	69.0	152.0		17.884423499926925	0.033670300035737455
6	13.65695960004814	stim	2		2	unambiguous	left	preferred	69.0	152.0		17.918093799962662	0.0337063999613747
6	13.690666000009514	stim	3		2	unambiguous	left	preferred	69.0	152.0		17.951800199924037	0.033405099995434284
6	13.724071100004949	stim	4		2	unambiguous	left	preferred	69.0	152.0		17.98520529991947	0.033744300017133355
6	13.757815400022082	stim	5		2	unambiguous	left	preferred	69.0	152.0		18.018949599936604	0.033730900031514466
6	13.791546300053596	stim	6		2	unambiguous	left	preferred	69.0	152.0		18.05268049996812	0.033372199977748096
6	13.824918500031345	stim	7		2	unambiguous	left	preferred	69.0	152.0		18.086052699945867	0.03325940005015582
6	13.8581779000815	stim	8		2	unambiguous	left	preferred	69.0	152.0		18.119312099996023	0.03364579996559769
6	13.891823700047098	stim	9		2	unambiguous	left	preferred	69.0	152.0		18.15295789996162	0.0338696000399068
6	13.925693300087005	stim	10		2	unambiguous	left	preferred	69.0	152.0		18.186827500001527	0.033210599911399186
6	13.958903899998404	stim	11		2	unambiguous	left	preferred	69.0	152.0		18.220038099912927	0.03336030000355095
6	13.992264200001955	stim	12		2	unambiguous	left	preferred	69.0	152.0		18.253398399916478	0.033305800054222345
6	14.025570000056177	stim	13		2	unambiguous	left	preferred	69.0	152.0		18.2867041999707	0.03334189997985959
6	14.058911900036037	stim	14		2	unambiguous	left	preferred	69.0	152.0		18.32004609995056	0.033855700050480664
6	14.092767600086518	stim	15		2	unambiguous	left	preferred	69.0	152.0		18.35390180000104	0.03386319999117404
6	14.126630800077692	stim	16		2	unambiguous	left	preferred	69.0	152.0		18.387764999992214	0.0494677999522537
6	14.176098600029945	stim	17		2	unambiguous	left	preferred	69.0	152.0		18.437232799944468	0.03331229998730123
6	14.209410900017247	stim	18		2	unambiguous	left	preferred	69.0	152.0		18.47054509993177	0.033310199971310794
6	14.242721099988557	stim	19		2	unambiguous	left	preferred	69.0	152.0		18.50385529990308	0.033544300007633865
6	14.276265399996191	stim	20		2	unambiguous	left	preferred	69.0	152.0		18.537399599910714	0.03334449999965727
6	14.309609899995849	stim	21		2	unambiguous	left	preferred	69.0	152.0		18.57074409991037	0.03369040007237345
6	14.343300300068222	stim	22		2	unambiguous	left	preferred	69.0	152.0		18.604434499982744	0.03317589999642223
6	14.376476200064644	stim	23		2	unambiguous	left	preferred	69.0	152.0		18.637610399979167	0.03336529992520809
6	14.409841499989852	stim	24		2	unambiguous	left	preferred	69.0	152.0		18.670975699904375	0.03329360007774085
6	14.443135100067593	stim	25		2	unambiguous	left	preferred	69.0	152.0		18.704269299982116	0.033342699985951185
6	14.476477800053544	stim	26		2	unambiguous	left	preferred	69.0	152.0		18.737611999968067	0.033310099970549345
6	14.509787900024094	stim	27		2	unambiguous	left	preferred	69.0	152.0		18.770922099938616	0.034147300058975816
6	14.54393520008307	stim	28		2	unambiguous	left	preferred	69.0	152.0		18.805069399997592	0.03325629991013557
6	14.577191499993205	stim	29		2	unambiguous	left	preferred	69.0	152.0		18.838325699907728	0.03335150005295873
6	14.610543000046164	stim	30		2	unambiguous	left	preferred	69.0	152.0		18.871677199960686	0.03340219997335225
6	14.643945200019516	stim	31		2	unambiguous	left	preferred	69.0	152.0		18.90507939993404	0.033458300051279366
6	14.677403500070795	stim	32		2	unambiguous	left	preferred	69.0	152.0		18.938537699985318	0.03379809996113181
6	14.711201600031927	stim	33		2	unambiguous	left	preferred	69.0	152.0		18.97233579994645	0.033787399996072054
6	14.744989000028	stim	34		2	unambiguous	left	preferred	69.0	152.0		19.00612319994252	0.03330040001310408
6	14.778289400041103	stim	35		2	unambiguous	left	preferred	69.0	152.0		19.039423599955626	0.033341099973767996
6	14.811630500014871	stim	36		2	unambiguous	left	preferred	69.0	152.0		19.072764699929394	0.03336280002258718
6	14.844993300037459	stim	37		2	unambiguous	left	preferred	69.0	152.0		19.10612749995198	0.03329439996741712
6	14.878287700004876	stim	38		2	unambiguous	left	preferred	69.0	152.0		19.139421899919398	0.03332739998586476
6	14.91161509999074	stim	39		2	unambiguous	left	preferred	69.0	152.0		19.172749299905263	0.03335280006285757
6	14.944967900053598	stim	40		2	unambiguous	left	preferred	69.0	152.0		19.20610209996812	0.03371059999335557
6	14.978678500046954	stim	41		2	unambiguous	left	preferred	69.0	152.0		19.239812699961476	0.03346930001862347
6	15.012147800065577	stim	42		2	unambiguous	left	preferred	69.0	152.0		19.2732819999801	0.033296999987214804
6	15.045444800052792	stim	43		2	unambiguous	left	preferred	69.0	152.0		19.306578999967314	0.033674699952825904
6	15.079119500005618	stim	44		2	unambiguous	left	preferred	69.0	152.0		19.34025369992014	0.03344560007099062
6	15.112565100076608	stim	45		2	unambiguous	left	preferred	69.0	152.0		19.37369929999113	0.03332529996987432
6	15.145890400046483	stim	46		2	unambiguous	left	preferred	69.0	152.0		19.407024599961005	0.03346199996303767
6	15.17935240000952	stim	47		2	unambiguous	left	preferred	69.0	152.0		19.440486599924043	0.033520900062285364
6	15.212873300071806	stim	48		2	unambiguous	left	preferred	69.0	152.0		19.474007499986328	0.03333449992351234
6	15.246207799995318	stim	49		2	unambiguous	left	preferred	69.0	152.0		19.50734199990984	0.03519830002915114
6	15.28140610002447	stim	50		2	unambiguous	left	preferred	69.0	152.0		19.54254029993899	0.03327969997189939
6	15.314685799996369	stim	51		2	unambiguous	left	preferred	69.0	152.0		19.57581999991089	0.03383950004354119
6	15.34852530003991	stim	52		2	unambiguous	left	preferred	69.0	152.0		19.609659499954432	0.03318339993711561
6	15.381708699977025	stim	53		2	unambiguous	left	preferred	69.0	152.0		19.642842899891548	0.03327290003653616
6	15.414981600013562	stim	54		2	unambiguous	left	preferred	69.0	152.0		19.676115799928084	0.03333650005515665
6	15.448318100068718	stim	55		2	unambiguous	left	preferred	69.0	152.0		19.70945229998324	0.03330449992790818
6	15.481622599996626	stim	56		2	unambiguous	left	preferred	69.0	152.0		19.74275679991115	0.0334846000187099
6	15.515107200015336	stim	57		2	unambiguous	left	preferred	69.0	152.0		19.77624139992986	0.033279199968092144
6	15.548386399983428	stim	58		2	unambiguous	left	preferred	69.0	152.0		19.80952059989795	0.03338830010034144
6	15.58177470008377	stim	59		2	unambiguous	left	preferred	69.0	152.0		19.842908899998292	0.033250799984671175
6	15.615025500068441	stim	60		2	unambiguous	left	preferred	69.0	152.0		19.876159699982964	0.033609299920499325
6	15.64863479998894	stim	61		2	unambiguous	left	preferred	69.0	152.0		19.909768999903463	0.03407150006387383
6	15.682706300052814	stim	62		2	unambiguous	left	preferred	69.0	152.0		19.943840499967337	0.03387089993339032
6	15.716577199986205	stim	63		2	unambiguous	left	preferred	69.0	152.0		19.977711399900727	0.03287530003581196
6	15.749452500022016	stim	64		2	unambiguous	left	preferred	69.0	152.0		20.01058669993654	0.03340419998858124
6	15.782856700010598	stim	65		2	unambiguous	left	preferred	69.0	152.0		20.04399089992512	0.0335701999720186
6	15.816426899982616	stim	66		2	unambiguous	left	preferred	69.0	152.0		20.07756109989714	0.033218400087207556
6	15.849645300069824	stim	67		2	unambiguous	left	preferred	69.0	152.0		20.110779499984346	0.03337339998688549
6	15.88301870005671	stim	68		2	unambiguous	left	preferred	69.0	152.0		20.144152899971232	0.0333284999942407
7	15.91634720005095	stim	0		2	unambiguous	right	preferred	69.0	31.0		20.177481399965473	0.033682100009173155
7	15.950029300060123	stim	1		2	unambiguous	right	preferred	69.0	31.0		20.211163499974646	0.033800399978645146
7	15.983829700038768	stim	2		2	unambiguous	right	preferred	69.0	31.0		20.24496389995329	0.03324969997629523
7	16.017079400015064	stim	3		2	unambiguous	right	preferred	69.0	31.0		20.278213599929586	0.03331049997359514
7	16.05038989998866	stim	4		2	unambiguous	right	preferred	69.0	31.0		20.31152409990318	0.03364969999529421
7	16.084039599983953	stim	5		2	unambiguous	right	preferred	69.0	31.0		20.345173799898475	0.033323700074106455
7	16.11736330005806	stim	6		2	unambiguous	right	preferred	69.0	31.0		20.378497499972582	0.0333597999997437
7	16.150723100057803	stim	7		2	unambiguous	right	preferred	69.0	31.0		20.411857299972326	0.03347269992809743
7	16.1841957999859	stim	8		2	unambiguous	right	preferred	69.0	31.0		20.445329999900423	0.0332315000705421
7	16.217427300056443	stim	9		2	unambiguous	right	preferred	69.0	31.0		20.478561499970965	0.033311499981209636
7	16.250738800037652	stim	10		2	unambiguous	right	preferred	69.0	31.0		20.511872999952175	0.03329419996589422
7	16.284033000003546	stim	11		2	unambiguous	right	preferred	69.0	31.0		20.54516719991807	0.03355509997345507
7	16.317588099977	stim	12		2	unambiguous	right	preferred	69.0	31.0		20.578722299891524	0.03334900003392249
7	16.350937100010924	stim	13		2	unambiguous	right	preferred	69.0	31.0		20.612071299925447	0.0339364999672398
7	16.384873599978164	stim	14		2	unambiguous	right	preferred	69.0	31.0		20.646007799892686	0.03349880001042038
7	16.418372399988584	stim	15		2	unambiguous	right	preferred	69.0	31.0		20.679506599903107	0.03335060004610568
7	16.45172300003469	stim	16		2	unambiguous	right	preferred	69.0	31.0		20.712857199949212	0.033328099991194904
7	16.485051100025885	stim	17		2	unambiguous	right	preferred	69.0	31.0		20.746185299940407	0.03380410000681877
7	16.518855200032704	stim	18		2	unambiguous	right	preferred	69.0	31.0		20.779989399947226	0.033193200011737645
7	16.55204840004444	stim	19		2	unambiguous	right	preferred	69.0	31.0		20.813182599958964	0.033900999929755926
7	16.585949399974197	stim	20		2	unambiguous	right	preferred	69.0	31.0		20.84708359988872	0.03360260010231286
7	16.61955200007651	stim	21		2	unambiguous	right	preferred	69.0	31.0		20.880686199991032	0.033345800009556115
7	16.652897800086066	stim	22		2	unambiguous	right	preferred	69.0	31.0		20.91403200000059	0.0333642999175936
7	16.68626210000366	stim	23		2	unambiguous	right	preferred	69.0	31.0		20.947396299918182	0.033660000073723495
7	16.719922100077383	stim	24		2	unambiguous	right	preferred	69.0	31.0		20.981056299991906	0.033269699895754457
7	16.753191799973138	stim	25		2	unambiguous	right	preferred	69.0	31.0		21.01432599988766	0.033790100016631186
7	16.78698189998977	stim	26		2	unambiguous	right	preferred	69.0	31.0		21.04811609990429	0.0330989999929443
7	16.820080899982713	stim	27		2	unambiguous	right	preferred	69.0	31.0		21.081215099897236	0.03352310007903725
7	16.85360400006175	stim	28		2	unambiguous	right	preferred	69.0	31.0		21.114738199976273	0.033754399977624416
7	16.887358400039375	stim	29		2	unambiguous	right	preferred	69.0	31.0		21.148492599953897	0.0332973999902606
7	16.920655800029635	stim	30		2	unambiguous	right	preferred	69.0	31.0		21.181789999944158	0.03354960004799068
7	16.954205400077626	stim	31		2	unambiguous	right	preferred	69.0	31.0		21.21533959999215	0.033708499977365136
7	16.98791390005499	stim	32		2	unambiguous	right	preferred	69.0	31.0		21.249048099969514	0.032972199958749115
7	17.02088610001374	stim	33		2	unambiguous	right	preferred	69.0	31.0		21.282020299928263	0.03389600000809878
7	17.05478210002184	stim	34		2	unambiguous	right	preferred	69.0	31.0		21.31591629993636	0.0333091999636963
7	17.088091299985535	stim	35		2	unambiguous	right	preferred	69.0	31.0		21.349225499900058	0.03340830001980066
7	17.121499600005336	stim	36		2	unambiguous	right	preferred	69.0	31.0		21.38263379991986	0.03339440003037453
7	17.15489400003571	stim	37		2	unambiguous	right	preferred	69.0	31.0		21.416028199950233	0.03417670005001128
7	17.189070700085722	stim	38		2	unambiguous	right	preferred	69.0	31.0		21.450204900000244	0.03335329995024949
7	17.22242400003597	stim	39		2	unambiguous	right	preferred	69.0	31.0		21.483558199950494	0.03355479997117072
7	17.255978800007142	stim	40		2	unambiguous	right	preferred	69.0	31.0		21.517112999921665	0.033953099977225065
7	17.289931899984367	stim	41		2	unambiguous	right	preferred	69.0	31.0		21.55106609989889	0.033335600048303604
7	17.32326750003267	stim	42		2	unambiguous	right	preferred	69.0	31.0		21.584401699947193	0.0335073999594897
7	17.35677489999216	stim	43		2	unambiguous	right	preferred	69.0	31.0		21.617909099906683	0.03337170009035617
7	17.390146600082517	stim	44		2	unambiguous	right	preferred	69.0	31.0		21.65128079999704	0.0342162000015378
7	17.424362800084054	stim	45		2	unambiguous	right	preferred	69.0	31.0		21.685496999998577	0.03322199999820441
7	17.45758480008226	stim	46		2	unambiguous	right	preferred	69.0	31.0		21.71871899999678	0.03369609999936074
7	17.49128090008162	stim	47		2	unambiguous	right	preferred	69.0	31.0		21.752415099996142	0.03354079998098314
7	17.524821700062603	stim	48		2	unambiguous	right	preferred	69.0	31.0		21.785955899977125	0.03335179993882775
7	17.55817350000143	stim	49		2	unambiguous	right	preferred	69.0	31.0		21.819307699915953	0.033396400045603514
7	17.591569900047034	stim	50		2	unambiguous	right	preferred	69.0	31.0		21.852704099961556	0.033634699997492135
7	17.625204600044526	stim	51		2	unambiguous	right	preferred	69.0	31.0		21.88633879995905	0.033771099988371134
7	17.658975700032897	stim	52		2	unambiguous	right	preferred	69.0	31.0		21.92010989994742	0.03333590005058795
7	17.692311600083485	stim	53		2	unambiguous	right	preferred	69.0	31.0		21.953445799998008	0.03333309991285205
7	17.725644699996337	stim	54		2	unambiguous	right	preferred	69.0	31.0		21.98677889991086	0.033504300052300096
7	17.759149000048637	stim	55		2	unambiguous	right	preferred	69.0	31.0		22.02028319996316	0.033535299939103425
7	17.79268429998774	stim	56		2	unambiguous	right	preferred	69.0	31.0		22.053818499902263	0.033200400066562
7	17.825884700054303	stim	57		2	unambiguous	right	preferred	69.0	31.0		22.087018899968825	0.03351809992454946
7	17.859402799978852	stim	58		2	unambiguous	right	preferred	69.0	31.0		22.120536999893375	0.033360500005073845
7	17.892763299983926	stim	59		2	unambiguous	right	preferred	69.0	31.0		22.15389749989845	0.03334369999356568
7	17.926106999977492	stim	60		2	unambiguous	right	preferred	69.0	31.0		22.187241199892014	0.03329620009753853
7	17.95940320007503	stim	61		2	unambiguous	right	preferred	69.0	31.0		22.220537399989553	0.03386339999269694
7	17.993266600067727	stim	62		2	unambiguous	right	preferred	69.0	31.0		22.25440079998225	0.03335869999136776
7	18.026625300059095	stim	63		2	unambiguous	right	preferred	69.0	31.0		22.287759499973617	0.03338069992605597
7	18.06000599998515	stim	64		2	unambiguous	right	preferred	69.0	31.0		22.321140199899673	0.03387210005894303
7	18.093878100044094	stim	65		2	unambiguous	right	preferred	69.0	31.0		22.355012299958616	0.03324459993746132
7	18.127122699981555	stim	66		2	unambiguous	right	preferred	69.0	31.0		22.388256899896078	0.033353300066664815
7	18.16047600004822	stim	67		2	unambiguous	right	preferred	69.0	31.0		22.421610199962743	0.033624400035478175
7	18.1941004000837	stim	68		2	unambiguous	right	preferred	69.0	31.0		22.45523459999822	0.03325789992231876
8	18.227358300006017	stim	0		2	unambiguous	left	preferred	66.0	100.0		22.48849249992054	0.03326250007376075
8	18.260620800079778	stim	1		2	unambiguous	left	preferred	66.0	100.0		22.5217549999943	0.03329299995675683
8	18.293913800036535	stim	2		2	unambiguous	left	preferred	66.0	100.0		22.555047999951057	0.03335639997385442
8	18.32727020001039	stim	3		2	unambiguous	left	preferred	66.0	100.0		22.58840439992491	0.03407419996801764
8	18.361344399978407	stim	4		2	unambiguous	left	preferred	66.0	100.0		22.62247859989293	0.03378240007441491
8	18.39512680005282	stim	5		2	unambiguous	left	preferred	66.0	100.0		22.656260999967344	0.03349309996701777
8	18.42861990001984	stim	6		2	unambiguous	left	preferred	66.0	100.0		22.689754099934362	0.03339140000753105
8	18.46201130002737	stim	7		2	unambiguous	left	preferred	66.0	100.0		22.723145499941893	0.03334229998290539
8	18.495353600010276	stim	8		2	unambiguous	left	preferred	66.0	100.0		22.7564877999248	0.033524899976328015
8	18.528878499986604	stim	9		2	unambiguous	left	preferred	66.0	100.0		22.790012699901126	0.033256800030358136
8	18.562135300016962	stim	10		2	unambiguous	left	preferred	66.0	100.0		22.823269499931484	0.033449399983510375
8	18.595584700000472	stim	11		2	unambiguous	left	preferred	66.0	100.0		22.856718899914995	0.033658600063063204
8	18.629243300063536	stim	12		2	unambiguous	left	preferred	66.0	100.0		22.890377499978058	0.03328149998560548
8	18.66252480004914	stim	13		2	unambiguous	left	preferred	66.0	100.0		22.923658999963664	0.03351949993520975
8	18.69604429998435	stim	14		2	unambiguous	left	preferred	66.0	100.0		22.957178499898873	0.033403700101189315
8	18.72944800008554	stim	15		2	unambiguous	left	preferred	66.0	100.0		22.990582200000063	0.03345609991811216
8	18.762904100003652	stim	16		2	unambiguous	left	preferred	66.0	100.0		23.024038299918175	0.03333520004525781
8	18.79623930004891	stim	17		2	unambiguous	left	preferred	66.0	100.0		23.057373499963433	0.0334341999841854
8	18.829673500033095	stim	18		2	unambiguous	left	preferred	66.0	100.0		23.090807699947618	0.03523389995098114
8	18.864907399984077	stim	19		2	unambiguous	left	preferred	66.0	100.0		23.1260415998986	0.033331100014038384
8	18.898238499998115	stim	20		2	unambiguous	left	preferred	66.0	100.0		23.159372699912637	0.03330800007097423
8	18.93154650006909	stim	21		2	unambiguous	left	preferred	66.0	100.0		23.19268069998361	0.03338469995651394
8	18.964931200025603	stim	22		2	unambiguous	left	preferred	66.0	100.0		23.226065399940126	0.03351570002269
8	18.998446900048293	stim	23		2	unambiguous	left	preferred	66.0	100.0		23.259581099962816	0.03312409995123744
8	19.03157099999953	stim	24		2	unambiguous	left	preferred	66.0	100.0		23.292705199914053	0.03333610005211085
8	19.06490710005164	stim	25		2	unambiguous	left	preferred	66.0	100.0		23.326041299966164	0.033318999921903014
8	19.098226099973544	stim	26		2	unambiguous	left	preferred	66.0	100.0		23.359360299888067	0.0336285000666976
8	19.131854600040242	stim	27		2	unambiguous	left	preferred	66.0	100.0		23.392988799954765	0.03390609996858984
8	19.165760700008832	stim	28		2	unambiguous	left	preferred	66.0	100.0		23.426894899923354	0.03371500002685934
8	19.19947570003569	stim	29		2	unambiguous	left	preferred	66.0	100.0		23.460609899950214	0.03340680000837892
8	19.23288250004407	stim	30		2	unambiguous	left	preferred	66.0	100.0		23.494016699958593	0.03374079999048263
8	19.266623300034553	stim	31		2	unambiguous	left	preferred	66.0	100.0		23.527757499949075	0.03332259994931519
8	19.299945899983868	stim	32		2	unambiguous	left	preferred	66.0	100.0		23.56108009989839	0.03330830007325858
8	19.333254200057127	stim	33		2	unambiguous	left	preferred	66.0	100.0		23.59438839997165	0.0336441999534145
8	19.36689840001054	stim	34		2	unambiguous	left	preferred	66.0	100.0		23.628032599925064	0.03386369999498129
8	19.400762100005522	stim	35		2	unambiguous	left	preferred	66.0	100.0		23.661896299920045	0.033531200024299324
8	19.43429330002982	stim	36		2	unambiguous	left	preferred	66.0	100.0		23.695427499944344	0.03333490004297346
8	19.467628200072795	stim	37		2	unambiguous	left	preferred	66.0	100.0		23.728762399987318	0.03334199998062104
8	19.500970200053416	stim	38		2	unambiguous	left	preferred	66.0	100.0		23.76210439996794	0.0333089999621734
8	19.53427920001559	stim	39		2	unambiguous	left	preferred	66.0	100.0		23.795413399930112	0.033488000044599175
8	19.56776720006019	stim	40		2	unambiguous	left	preferred	66.0	100.0		23.82890139997471	0.033984299981966615
8	19.601751500042155	stim	41		2	unambiguous	left	preferred	66.0	100.0		23.862885699956678	0.033690999960526824
8	19.635442500002682	stim	42		2	unambiguous	left	preferred	66.0	100.0		23.896576699917205	0.03396610007621348
8	19.669408600078896	stim	43		2	unambiguous	left	preferred	66.0	100.0		23.930542799993418	0.03330789995379746
8	19.702716500032693	stim	44		2	unambiguous	left	preferred	66.0	100.0		23.963850699947216	0.033316200016997755
8	19.73603270004969	stim	45		2	unambiguous	left	preferred	66.0	100.0		23.997166899964213	0.03370050003286451
8	19.769733200082555	stim	46		2	unambiguous	left	preferred	66.0	100.0		24.030867399997078	0.0335699999704957
8	19.80330320005305	stim	47		2	unambiguous	left	preferred	66.0	100.0		24.064437399967574	0.03338199993595481
8	19.836685199989006	stim	48		2	unambiguous	left	preferred	66.0	100.0		24.09781939990353	0.033632999984547496
8	19.870318199973553	stim	49		2	unambiguous	left	preferred	66.0	100.0		24.131452399888076	0.03329830011352897
8	19.903616500087082	stim	50		2	unambiguous	left	preferred	66.0	100.0		24.164750700001605	0.033606399898417294
8	19.9372228999855	stim	51		2	unambiguous	left	preferred	66.0	100.0		24.198357099900022	0.03358690009918064
8	19.97080980008468	stim	52		2	unambiguous	left	preferred	66.0	100.0		24.231943999999203	0.033468399895355105
8	20.004278199980035	stim	53		2	unambiguous	left	preferred	66.0	100.0		24.265412399894558	0.033215600065886974
8	20.037493800045922	stim	54		2	unambiguous	left	preferred	66.0	100.0		24.298627999960445	0.03367189993150532
8	20.071165699977428	stim	55		2	unambiguous	left	preferred	66.0	100.0		24.33229989989195	0.03330100001767278
8	20.1044666999951	stim	56		2	unambiguous	left	preferred	66.0	100.0		24.365600899909623	0.03340570000000298
8	20.137872399995103	stim	57		2	unambiguous	left	preferred	66.0	100.0		24.399006599909626	0.03368029999546707
8	20.17155269999057	stim	58		2	unambiguous	left	preferred	66.0	100.0		24.432686899905093	0.03355610009748489
8	20.205108800088055	stim	59		2	unambiguous	left	preferred	66.0	100.0		24.466243000002578	0.03375379997305572
8	20.23886260006111	stim	60		2	unambiguous	left	preferred	66.0	100.0		24.499996799975634	0.03343940002378076
8	20.272302000084892	stim	61		2	unambiguous	left	preferred	66.0	100.0		24.533436199999414	0.033618399989791214
8	20.305920400074683	stim	62		2	unambiguous	left	preferred	66.0	100.0		24.567054599989206	0.03331969992723316
8	20.339240100001916	stim	63		2	unambiguous	left	preferred	66.0	100.0		24.60037429991644	0.03354850003961474
8	20.37278860004153	stim	64		2	unambiguous	left	preferred	66.0	100.0		24.633922799956053	0.0334415000397712
8	20.406230100081302	stim	65		2	unambiguous	left	preferred	66.0	100.0		24.667364299995825	0.033711900003254414
0	20.439942000084557	stim	0		120	break	break	preferred	1.0	0.0		24.70107619999908	2.0049532999983057
10	22.444895300082862	stim	0		2	ambiguous	ambiguous	preferred	600.0	30.0		26.706029499997385	0.033319099922664464
10	22.478214400005527	stim	1		2	ambiguous	ambiguous	preferred	600.0	30.0		26.73934859992005	0.03333790006581694
10	22.511552300071344	stim	2		2	ambiguous	ambiguous	preferred	600.0	30.0		26.772686499985866	0.033555899979546666
10	22.54510820005089	stim	3		2	ambiguous	ambiguous	preferred	600.0	30.0		26.806242399965413	0.033327999990433455
10	22.578436200041324	stim	4		2	ambiguous	ambiguous	preferred	600.0	30.0		26.839570399955846	0.0333095999667421
10	22.611745800008066	stim	5		2	ambiguous	ambiguous	preferred	600.0	30.0		26.87287999992259	0.03360460000112653
10	22.645350400009193	stim	6		2	ambiguous	ambiguous	preferred	600.0	30.0		26.906484599923715	0.0333402999676764
10	22.67869069997687	stim	7		2	ambiguous	ambiguous	preferred	600.0	30.0		26.93982489989139	0.03363530000206083
10	22.71232599997893	stim	8		2	ambiguous	ambiguous	preferred	600.0	30.0		26.973460199893452	0.03346629999577999
10	22.74579229997471	stim	9		2	ambiguous	ambiguous	preferred	600.0	30.0		27.006926499889232	0.03341140004340559
10	22.779203700018115	stim	10		2	ambiguous	ambiguous	preferred	600.0	30.0		27.040337899932638	0.03332609997596592
10	22.81252979999408	stim	11		2	ambiguous	ambiguous	preferred	600.0	30.0		27.073663999908604	0.03342250001151115
10	22.845952300005592	stim	12		2	ambiguous	ambiguous	preferred	600.0	30.0		27.107086499920115	0.03368400002364069
10	22.879636300029233	stim	13		2	ambiguous	ambiguous	preferred	600.0	30.0		27.140770499943756	0.03486959997098893
10	22.914505900000222	stim	14		2	ambiguous	ambiguous	preferred	600.0	30.0		27.175640099914744	0.031754600000567734
10	22.94626050000079	stim	15		2	ambiguous	ambiguous	preferred	600.0	30.0		27.207394699915312	0.03332559997215867
10	22.97958609997295	stim	16		2	ambiguous	ambiguous	preferred	600.0	30.0		27.24072029988747	0.0333551000803709
10	23.01294120005332	stim	17		2	ambiguous	ambiguous	preferred	600.0	30.0		27.274075399967842	0.03519229998346418
10	23.048133500036784	stim	18		2	ambiguous	ambiguous	preferred	600.0	30.0		27.309267699951306	0.033280699979513884
10	23.081414200016297	stim	19		2	ambiguous	ambiguous	preferred	600.0	30.0		27.34254839993082	0.03337109996937215
10	23.11478529998567	stim	20		2	ambiguous	ambiguous	preferred	600.0	30.0		27.375919499900192	0.033289500046521425
10	23.14807480003219	stim	21		2	ambiguous	ambiguous	preferred	600.0	30.0		27.409208999946713	0.03344459994696081
10	23.181519399979152	stim	22		2	ambiguous	ambiguous	preferred	600.0	30.0		27.442653599893674	0.03326040005777031
10	23.214779800036922	stim	23		2	ambiguous	ambiguous	preferred	600.0	30.0		27.475913999951445	0.03355399996507913
10	23.248333800002	stim	24		2	ambiguous	ambiguous	preferred	600.0	30.0		27.509467999916524	0.033676300081424415
10	23.282010100083426	stim	25		2	ambiguous	ambiguous	preferred	600.0	30.0		27.543144299997948	0.03288539999630302
10	23.31489550007973	stim	26		2	ambiguous	ambiguous	preferred	600.0	30.0		27.57602969999425	0.03323279996402562
10	23.348128300043754	stim	27		2	ambiguous	ambiguous	preferred	600.0	30.0		27.609262499958277	0.03328259999398142
10	23.381410900037736	stim	28		2	ambiguous	ambiguous	preferred	600.0	30.0		27.642545099952258	0.033341399976052344
10	23.414752300013788	stim	29		2	ambiguous	ambiguous	preferred	600.0	30.0		27.67588649992831	0.033962000044994056
10	23.448714300058782	stim	30		2	ambiguous	ambiguous	preferred	600.0	30.0		27.709848499973305	0.03278619993943721
10	23.48150049999822	stim	31		2	ambiguous	ambiguous	preferred	600.0	30.0		27.742634699912742	0.03356690006330609
10	23.515067400061525	stim	32		2	ambiguous	ambiguous	preferred	600.0	30.0		27.776201599976048	0.03360229998361319
10	23.54866970004514	stim	33		0	ambiguous	ambiguous	preferred	600.0	30.0		27.80980389995966	0.10045070003252476
