trial_nr	onset	event_type	phase	response	nr_frames	block_type	trial_type	response_hand	phase_length	last_frame	key_duration	onset_abs	duration
0	0.020149299991317093	stim	0		0	break	break	preferred	1.0	0.0		4.066282500047237	2.610473799984902
0	2.6306230999762192	break	0	space	0	break	break	preferred	1.0	0.0	0.14772859995719045	6.676756300032139	0.24472870002500713
0	2.8753518000012264	break	0	space	599	break	break	preferred	1.0	0.0	0.07154529995750636	6.921485000057146	7.188496400020085
1	10.063848200021312	stim	0		2	ambiguous	ambiguous	preferred	600.0	30.0		14.109981400077231	0.033307299949228764
1	10.09715549997054	stim	1		2	ambiguous	ambiguous	preferred	600.0	30.0		14.14328870002646	0.03341200004797429
1	10.130567500018515	stim	2		2	ambiguous	ambiguous	preferred	600.0	30.0		14.176700700074434	0.03345139999873936
1	10.164018900017254	stim	3		2	ambiguous	ambiguous	preferred	600.0	30.0		14.210152100073174	0.03324410005006939
1	10.197263000067323	stim	4		2	ambiguous	ambiguous	preferred	600.0	30.0		14.243396200123243	0.033883499912917614
1	10.231146499980241	stim	5		2	ambiguous	ambiguous	preferred	600.0	30.0		14.27727970003616	0.032944199978373945
1	10.264090699958615	stim	6		2	ambiguous	ambiguous	preferred	600.0	30.0		14.310223900014535	0.03327110002283007
1	10.297361799981445	stim	7		2	ambiguous	ambiguous	preferred	600.0	30.0		14.343495000037365	0.03337319998536259
1	10.330734999966808	stim	8		2	ambiguous	ambiguous	preferred	600.0	30.0		14.376868200022727	0.033809800050221384
1	10.364544800017029	stim	9		2	ambiguous	ambiguous	preferred	600.0	30.0		14.410678000072949	0.05022900004405528
1	10.414773800061084	stim	10		2	ambiguous	ambiguous	preferred	600.0	30.0		14.460907000117004	0.05026679998263717
1	10.465040600043721	stim	11		2	ambiguous	ambiguous	preferred	600.0	30.0		14.511173800099641	0.049551600008271635
1	10.514592200051993	stim	12		2	ambiguous	ambiguous	preferred	600.0	30.0		14.560725400107913	0.05016799992881715
1	10.56476019998081	stim	13		2	ambiguous	ambiguous	preferred	600.0	30.0		14.61089340003673	0.03332240006420761
1	10.598082600045018	stim	14		2	ambiguous	ambiguous	preferred	600.0	30.0		14.644215800100937	0.03359639993868768
1	10.631678999983706	stim	15		2	ambiguous	ambiguous	preferred	600.0	30.0		14.677812200039625	0.034149100072681904
1	10.665828100056387	stim	16		2	ambiguous	ambiguous	preferred	600.0	30.0		14.711961300112307	0.03258359991014004
1	10.698411699966528	stim	17		2	ambiguous	ambiguous	preferred	600.0	30.0		14.744544900022447	0.03355669998563826
1	10.731968399952166	stim	18		2	ambiguous	ambiguous	preferred	600.0	30.0		14.778101600008085	0.03339140000753105
1	10.765359799959697	stim	19		2	ambiguous	ambiguous	preferred	600.0	30.0		14.811493000015616	0.033446500077843666
1	10.79880630003754	stim	20		2	ambiguous	ambiguous	preferred	600.0	30.0		14.84493950009346	0.033247699961066246
1	10.832053999998607	stim	21		2	ambiguous	ambiguous	preferred	600.0	30.0		14.878187200054526	0.035212800023145974
1	10.867266800021753	stim	22		2	ambiguous	ambiguous	preferred	600.0	30.0		14.913400000077672	0.03239649999886751
1	10.89966330002062	stim	23		2	ambiguous	ambiguous	preferred	600.0	30.0		14.94579650007654	0.03367579996120185
1	10.933339099981822	stim	24		2	ambiguous	ambiguous	preferred	600.0	30.0		14.979472300037742	0.03377059998456389
1	10.967109699966386	stim	25		2	ambiguous	ambiguous	preferred	600.0	30.0		15.013242900022306	0.03340469999238849
1	11.000514399958774	stim	26		2	ambiguous	ambiguous	preferred	600.0	30.0		15.046647600014694	0.03327600006014109
1	11.033790400018916	stim	27		2	ambiguous	ambiguous	preferred	600.0	30.0		15.079923600074835	0.0386655000038445
1	11.07245590002276	stim	28		2	ambiguous	ambiguous	preferred	600.0	30.0		15.11858910007868	0.02824819996021688
1	11.100704099982977	stim	29		2	ambiguous	ambiguous	preferred	600.0	30.0		15.146837300038897	0.03331720002461225
1	11.13402130000759	stim	30		2	ambiguous	ambiguous	preferred	600.0	30.0		15.180154500063509	0.033665900002233684
1	11.167687200009823	stim	31		2	ambiguous	ambiguous	preferred	600.0	30.0		15.213820400065742	0.036615599994547665
1	11.20430280000437	stim	32		2	ambiguous	ambiguous	preferred	600.0	30.0		15.25043600006029	0.02997010003309697
1	11.234272900037467	stim	33		2	ambiguous	ambiguous	preferred	600.0	30.0		15.280406100093387	0.039276499999687076
1	11.273549400037155	stim	34		2	ambiguous	ambiguous	preferred	600.0	30.0		15.319682600093074	0.02786279993597418
1	11.301412199973129	stim	35		2	ambiguous	ambiguous	preferred	600.0	30.0		15.347545400029048	0.03648790006991476
1	11.337900100043043	stim	36		2	ambiguous	ambiguous	preferred	600.0	30.0		15.384033300098963	0.03348659991752356
1	11.371386699960567	stim	37		2	ambiguous	ambiguous	preferred	600.0	30.0		15.417519900016487	0.033906100085005164
1	11.405292800045572	stim	38		2	ambiguous	ambiguous	preferred	600.0	30.0		15.451426000101492	0.04972150002140552
1	11.455014300066978	stim	39		2	ambiguous	ambiguous	preferred	600.0	30.0		15.501147500122897	0.03521589993033558
1	11.490230199997313	stim	40		2	ambiguous	ambiguous	preferred	600.0	30.0		15.536363400053233	0.031190100009553134
1	11.521420300006866	stim	41		2	ambiguous	ambiguous	preferred	600.0	30.0		15.567553500062786	0.03337059996556491
1	11.554790899972431	stim	42		2	ambiguous	ambiguous	preferred	600.0	30.0		15.600924100028351	0.03318929998204112
1	11.587980199954472	stim	43		2	ambiguous	ambiguous	preferred	600.0	30.0		15.634113400010392	0.03353740007150918
1	11.621517600025982	stim	44		2	ambiguous	ambiguous	preferred	600.0	30.0		15.667650800081901	0.03345149999950081
1	11.654969100025482	stim	45		2	ambiguous	ambiguous	preferred	600.0	30.0		15.701102300081402	0.03345460002310574
1	11.688423700048588	stim	46		2	ambiguous	ambiguous	preferred	600.0	30.0		15.734556900104508	0.03311540000140667
1	11.721539100049995	stim	47		2	ambiguous	ambiguous	preferred	600.0	30.0		15.767672300105914	0.033319099922664464
1	11.75485819997266	stim	48		2	ambiguous	ambiguous	preferred	600.0	30.0		15.800991400028579	0.033400600077584386
1	11.788258800050244	stim	49		2	ambiguous	ambiguous	preferred	600.0	30.0		15.834392000106163	0.03315789997577667
1	11.82141670002602	stim	50		2	ambiguous	ambiguous	preferred	600.0	30.0		15.86754990008194	0.033517700037918985
1	11.85493440006394	stim	51		2	ambiguous	ambiguous	preferred	600.0	30.0		15.901067600119859	0.031887799967080355
1	11.88682220003102	stim	52		2	ambiguous	ambiguous	preferred	600.0	30.0		15.93295540008694	0.0350419000023976
1	11.921864100033417	stim	53		2	ambiguous	ambiguous	preferred	600.0	30.0		15.967997300089337	0.03332009993027896
1	11.955184199963696	stim	54		2	ambiguous	ambiguous	preferred	600.0	30.0		16.001317400019616	0.03320740000344813
1	11.988391599967144	stim	55		2	ambiguous	ambiguous	preferred	600.0	30.0		16.034524800023064	0.033405099995434284
1	12.021796699962579	stim	56		2	ambiguous	ambiguous	preferred	600.0	30.0		16.0679299000185	0.03363100008573383
1	12.055427700048313	stim	57		2	ambiguous	ambiguous	preferred	600.0	30.0		16.101560900104232	0.03310979995876551
1	12.088537500007078	stim	58		2	ambiguous	ambiguous	preferred	600.0	30.0		16.134670700062998	0.033674599952064455
1	12.122212099959143	stim	59		2	ambiguous	ambiguous	preferred	600.0	30.0		16.168345300015062	0.032919200020842254
1	12.155131299979985	stim	60		2	ambiguous	ambiguous	preferred	600.0	30.0		16.201264500035904	0.03218680003192276
1	12.187318100011908	stim	61		2	ambiguous	ambiguous	preferred	600.0	30.0		16.233451300067827	0.03452460002154112
1	12.221842700033449	stim	62		2	ambiguous	ambiguous	preferred	600.0	30.0		16.26797590008937	0.033170599956065416
1	12.255013299989514	stim	63		2	ambiguous	ambiguous	preferred	600.0	30.0		16.301146500045434	0.03419230005238205
1	12.289205600041896	stim	64		2	ambiguous	ambiguous	preferred	600.0	30.0		16.335338800097816	0.03355699998792261
1	12.322762600029819	stim	65		2	ambiguous	ambiguous	preferred	600.0	30.0		16.36889580008574	0.04935999994631857
1	12.372122599976137	stim	66		2	ambiguous	ambiguous	preferred	600.0	30.0		16.418255800032057	0.049527900060638785
1	12.421650500036776	stim	67		2	ambiguous	ambiguous	preferred	600.0	30.0		16.467783700092696	0.03330929996445775
1	12.454959800001234	stim	68		2	ambiguous	ambiguous	preferred	600.0	30.0		16.501093000057153	0.033731100033037364
1	12.488690900034271	stim	69		2	ambiguous	ambiguous	preferred	600.0	30.0		16.53482410009019	0.03331570001319051
1	12.522006600047462	stim	70		2	ambiguous	ambiguous	preferred	600.0	30.0		16.56813980010338	0.03483529994264245
1	12.556841899990104	stim	71		2	ambiguous	ambiguous	preferred	600.0	30.0		16.602975100046024	0.031548700062558055
1	12.588390600052662	stim	72		2	ambiguous	ambiguous	preferred	600.0	30.0		16.634523800108582	0.03328109998255968
1	12.621671700035222	stim	73		2	ambiguous	ambiguous	preferred	600.0	30.0		16.66780490009114	0.03331209998577833
1	12.654983800021	stim	74		2	ambiguous	ambiguous	preferred	600.0	30.0		16.70111700007692	0.03343569999560714
1	12.688419500016607	stim	75		2	ambiguous	ambiguous	preferred	600.0	30.0		16.734552700072527	0.033864299999549985
1	12.722283800016157	stim	76		2	ambiguous	ambiguous	preferred	600.0	30.0		16.768417000072077	0.03294990002177656
1	12.755233700037934	stim	77		2	ambiguous	ambiguous	preferred	600.0	30.0		16.801366900093853	0.03331799991428852
1	12.788551699952222	stim	78		2	ambiguous	ambiguous	preferred	600.0	30.0		16.834684900008142	0.033205300103873014
1	12.821757000056095	stim	79		2	ambiguous	ambiguous	preferred	600.0	30.0		16.867890200112015	0.03334659989923239
1	12.855103599955328	stim	80		2	ambiguous	ambiguous	preferred	600.0	30.0		16.901236800011247	0.033345700008794665
1	12.888449299964122	stim	81		2	ambiguous	ambiguous	preferred	600.0	30.0		16.934582500020042	0.033514800015836954
1	12.92196409997996	stim	82		2	ambiguous	ambiguous	preferred	600.0	30.0		16.96809730003588	0.03359820006880909
1	12.955562300048769	stim	83		2	ambiguous	ambiguous	preferred	600.0	30.0		17.001695500104688	0.03456229995936155
1	12.99012460000813	stim	84		2	ambiguous	ambiguous	preferred	600.0	30.0		17.03625780006405	0.03197260003071278
1	13.022097200038843	stim	85		2	ambiguous	ambiguous	preferred	600.0	30.0		17.068230400094762	0.03368410002440214
1	13.055781300063245	stim	86		2	ambiguous	ambiguous	preferred	600.0	30.0		17.101914500119165	0.03345409990288317
1	13.089235399966128	stim	87		2	ambiguous	ambiguous	preferred	600.0	30.0		17.135368600022048	0.03363489999901503
1	13.122870299965143	stim	88		2	ambiguous	ambiguous	preferred	600.0	30.0		17.169003500021063	0.03343400009907782
1	13.156304300064221	stim	89		2	ambiguous	ambiguous	preferred	600.0	30.0		17.20243750012014	0.033088999916799366
1	13.18939329998102	stim	90		2	ambiguous	ambiguous	preferred	600.0	30.0		17.23552650003694	0.03300709999166429
1	13.222400399972685	stim	91		2	ambiguous	ambiguous	preferred	600.0	30.0		17.268533600028604	0.03334610001184046
1	13.255746499984525	stim	92		2	ambiguous	ambiguous	preferred	600.0	30.0		17.301879700040445	0.033354800078086555
1	13.289101300062612	stim	93		2	ambiguous	ambiguous	preferred	600.0	30.0		17.33523450011853	0.03340089996345341
1	13.322502200026065	stim	94		2	ambiguous	ambiguous	preferred	600.0	30.0		17.368635400081985	0.0343141999328509
1	13.356816399958916	stim	95		2	ambiguous	ambiguous	preferred	600.0	30.0		17.402949600014836	0.032916099997237325
1	13.389732499956153	stim	96		2	ambiguous	ambiguous	preferred	600.0	30.0		17.435865700012073	0.04982110008131713
1	13.43955360003747	stim	97		2	ambiguous	ambiguous	preferred	600.0	30.0		17.48568680009339	0.033280299976468086
1	13.472833900013939	stim	98		2	ambiguous	ambiguous	preferred	600.0	30.0		17.518967100069858	0.03332129993941635
1	13.506155199953355	stim	99		2	ambiguous	ambiguous	preferred	600.0	30.0		17.552288400009274	0.03381200006697327
1	13.539967200020328	stim	100		2	ambiguous	ambiguous	preferred	600.0	30.0		17.586100400076248	0.033674399950541556
1	13.57364159997087	stim	101		2	ambiguous	ambiguous	preferred	600.0	30.0		17.61977480002679	0.03296730003785342
1	13.606608900008723	stim	102		2	ambiguous	ambiguous	preferred	600.0	30.0		17.652742100064643	0.03363800002261996
1	13.640246900031343	stim	103		2	ambiguous	ambiguous	preferred	600.0	30.0		17.686380100087263	0.03304300003219396
1	13.673289900063537	stim	104		2	ambiguous	ambiguous	preferred	600.0	30.0		17.719423100119457	0.03323509998153895
1	13.706525000045076	stim	105		2	ambiguous	ambiguous	preferred	600.0	30.0		17.752658200100996	0.033409199910238385
1	13.739934199955314	stim	106		2	ambiguous	ambiguous	preferred	600.0	30.0		17.786067400011234	0.033993400051258504
1	13.773927600006573	stim	107		2	ambiguous	ambiguous	preferred	600.0	30.0		17.820060800062492	0.033086300012655556
1	13.807013900019228	stim	108		2	ambiguous	ambiguous	preferred	600.0	30.0		17.853147100075148	0.03328720002900809
1	13.840301100048237	stim	109		2	ambiguous	ambiguous	preferred	600.0	30.0		17.886434300104156	0.033275799942202866
1	13.87357689999044	stim	110		2	ambiguous	ambiguous	preferred	600.0	30.0		17.91971010004636	0.033363600028678775
1	13.906940500019118	stim	111		2	ambiguous	ambiguous	preferred	600.0	30.0		17.953073700075038	0.033369499957188964
1	13.940309999976307	stim	112		2	ambiguous	ambiguous	preferred	600.0	30.0		17.986443200032227	0.03382010001223534
1	13.974130099988542	stim	113		2	ambiguous	ambiguous	preferred	600.0	30.0		18.020263300044462	0.032991599990054965
1	14.007121699978597	stim	114		2	ambiguous	ambiguous	preferred	600.0	30.0		18.053254900034517	0.03329709998797625
1	14.040418799966574	stim	115		2	ambiguous	ambiguous	preferred	600.0	30.0		18.086552000022493	0.033190299989655614
1	14.07360909995623	stim	116		2	ambiguous	ambiguous	preferred	600.0	30.0		18.11974230001215	0.033418700098991394
1	14.10702780005522	stim	117		2	ambiguous	ambiguous	preferred	600.0	30.0		18.15316100011114	0.033636300009675324
1	14.140664100064896	stim	118		2	ambiguous	ambiguous	preferred	600.0	30.0		18.186797300120816	0.03359249990899116
1	14.174256599973887	stim	119		2	ambiguous	ambiguous	preferred	600.0	30.0		18.220389800029807	0.033819800009950995
1	14.208076399983838	stim	120		2	ambiguous	ambiguous	preferred	600.0	30.0		18.254209600039758	0.033030400052666664
1	14.241106800036505	stim	121		2	ambiguous	ambiguous	preferred	600.0	30.0		18.287240000092424	0.03323179995641112
1	14.274338599992916	stim	122		2	ambiguous	ambiguous	preferred	600.0	30.0		18.320471800048836	0.03351980005390942
1	14.307858400046825	stim	123		2	ambiguous	ambiguous	preferred	600.0	30.0		18.353991600102745	0.03332529996987432
1	14.3411837000167	stim	124		2	ambiguous	ambiguous	preferred	600.0	30.0		18.38731690007262	0.03373020002618432
1	14.374913900042884	stim	125		2	ambiguous	ambiguous	preferred	600.0	30.0		18.421047100098804	0.033429999952204525
1	14.408343899995089	stim	126		2	ambiguous	ambiguous	preferred	600.0	30.0		18.454477100051008	0.03324969997629523
1	14.441593599971384	stim	127		2	ambiguous	ambiguous	preferred	600.0	30.0		18.487726800027303	0.033234700094908476
1	14.474828300066292	stim	128		2	ambiguous	ambiguous	preferred	600.0	30.0		18.520961500122212	0.03362929995637387
1	14.508457600022666	stim	129		2	ambiguous	ambiguous	preferred	600.0	30.0		18.554590800078586	0.03341309993993491
1	14.541870699962601	stim	130		2	ambiguous	ambiguous	preferred	600.0	30.0		18.58800390001852	0.033976900042034686
1	14.575847600004636	stim	131		2	ambiguous	ambiguous	preferred	600.0	30.0		18.621980800060555	0.033661199966445565
1	14.609508799971081	stim	132		2	ambiguous	ambiguous	preferred	600.0	30.0		18.655642000027	0.03319840005133301
1	14.642707200022414	stim	133		2	ambiguous	ambiguous	preferred	600.0	30.0		18.688840400078334	0.03330479993019253
1	14.676011999952607	stim	134		2	ambiguous	ambiguous	preferred	600.0	30.0		18.722145200008526	0.033332400023937225
1	14.709344399976544	stim	135		2	ambiguous	ambiguous	preferred	600.0	30.0		18.755477600032464	0.0335893000010401
1	14.742933699977584	stim	136		2	ambiguous	ambiguous	preferred	600.0	30.0		18.789066900033504	0.033507500076666474
1	14.77644120005425	stim	137		2	ambiguous	ambiguous	preferred	600.0	30.0		18.82257440011017	0.03472709993366152
1	14.811168299987912	stim	138		2	ambiguous	ambiguous	preferred	600.0	30.0		18.85730150004383	0.032166299992240965
1	14.843334599980153	stim	139		2	ambiguous	ambiguous	preferred	600.0	30.0		18.889467800036073	0.03332819999195635
1	14.87666279997211	stim	140		2	ambiguous	ambiguous	preferred	600.0	30.0		18.92279600002803	0.03328119998332113
1	14.90994399995543	stim	141		2	ambiguous	ambiguous	preferred	600.0	30.0		18.95607720001135	0.033319300040602684
1	14.943263299996033	stim	142		2	ambiguous	ambiguous	preferred	600.0	30.0		18.989396500051953	0.03331590001471341
1	14.976579200010747	stim	143		2	ambiguous	ambiguous	preferred	600.0	30.0		19.022712400066666	0.03383650002069771
1	15.010415700031444	stim	144		2	ambiguous	ambiguous	preferred	600.0	30.0		19.056548900087364	0.033018399961292744
1	15.043434099992737	stim	145		2	ambiguous	ambiguous	preferred	600.0	30.0		19.089567300048657	0.033237399999052286
1	15.07667149999179	stim	146		2	ambiguous	ambiguous	preferred	600.0	30.0		19.12280470004771	0.03327560005709529
1	15.109947100048885	stim	147		2	ambiguous	ambiguous	preferred	600.0	30.0		19.156080300104804	0.033551499946042895
1	15.143498599994928	stim	148		2	ambiguous	ambiguous	preferred	600.0	30.0		19.189631800050847	0.03333650005515665
1	15.176835100050084	stim	149		2	ambiguous	ambiguous	preferred	600.0	30.0		19.222968300106004	0.03371129999868572
1	15.21054640004877	stim	150		2	ambiguous	ambiguous	preferred	600.0	30.0		19.25667960010469	0.03365299990400672
1	15.244199399952777	stim	151		2	ambiguous	ambiguous	preferred	600.0	30.0		19.290332600008696	0.0326981000835076
1	15.276897500036284	stim	152		2	ambiguous	ambiguous	preferred	600.0	30.0		19.323030700092204	0.033348000026308
1	15.310245500062592	stim	153		2	ambiguous	ambiguous	preferred	600.0	30.0		19.356378700118512	0.03330289991572499
1	15.343548399978317	stim	154		2	ambiguous	ambiguous	preferred	600.0	30.0		19.389681600034237	0.033510199980810285
1	15.377058599959128	stim	155		2	ambiguous	ambiguous	preferred	600.0	30.0		19.423191800015047	0.03418960003182292
1	15.41124819999095	stim	156		2	ambiguous	ambiguous	preferred	600.0	30.0		19.45738140004687	0.03347989998292178
1	15.444728099973872	stim	157		2	ambiguous	ambiguous	preferred	600.0	30.0		19.490861300029792	0.032978100003674626
1	15.477706199977547	stim	158		2	ambiguous	ambiguous	preferred	600.0	30.0		19.523839400033467	0.033488100045360625
1	15.511194300022908	stim	159		2	ambiguous	ambiguous	preferred	600.0	30.0		19.557327500078827	0.03356310003437102
1	15.544757400057279	stim	160		2	ambiguous	ambiguous	preferred	600.0	30.0		19.590890600113198	0.049653799971565604
1	15.594411200028844	stim	161		2	ambiguous	ambiguous	preferred	600.0	30.0		19.640544400084764	0.03357870003674179
1	15.627989900065586	stim	162		2	ambiguous	ambiguous	preferred	600.0	30.0		19.674123100121506	0.033401799970306456
1	15.661391700035892	stim	163		2	ambiguous	ambiguous	preferred	600.0	30.0		19.707524900091812	0.0333717999747023
1	15.694763500010595	stim	164		2	ambiguous	ambiguous	preferred	600.0	30.0		19.740896700066514	0.03330649994313717
1	15.728069999953732	stim	165		2	ambiguous	ambiguous	preferred	600.0	30.0		19.77420320000965	0.033290900057181716
1	15.761360900010914	stim	166		2	ambiguous	ambiguous	preferred	600.0	30.0		19.807494100066833	0.03330639994237572
1	15.79466729995329	stim	167		2	ambiguous	ambiguous	preferred	600.0	30.0		19.84080050000921	0.03367130004335195
1	15.828338599996641	stim	168		2	ambiguous	ambiguous	preferred	600.0	30.0		19.87447180005256	0.03446620004251599
1	15.862804800039157	stim	169		2	ambiguous	ambiguous	preferred	600.0	30.0		19.908938000095077	0.0322350999340415
1	15.895039899973199	stim	170		2	ambiguous	ambiguous	preferred	600.0	30.0		19.94117310002912	0.033387400093488395
1	15.928427300066687	stim	171		2	ambiguous	ambiguous	preferred	600.0	30.0		19.974560500122607	0.03326159995049238
1	15.96168890001718	stim	172		2	ambiguous	ambiguous	preferred	600.0	30.0		20.0078221000731	0.03332839999347925
1	15.995017300010659	stim	173		2	ambiguous	ambiguous	preferred	600.0	30.0		20.04115050006658	0.0332780999597162
1	16.028295399970375	stim	174		2	ambiguous	ambiguous	preferred	600.0	30.0		20.074428600026295	0.034107199986465275
1	16.06240259995684	stim	175		2	ambiguous	ambiguous	preferred	600.0	30.0		20.10853580001276	0.03296590002719313
1	16.095368499984033	stim	176		2	ambiguous	ambiguous	preferred	600.0	30.0		20.141501700039953	0.03351970005314797
1	16.12888820003718	stim	177		2	ambiguous	ambiguous	preferred	600.0	30.0		20.1750214000931	0.033341399976052344
1	16.162229600013234	stim	178		2	ambiguous	ambiguous	preferred	600.0	30.0		20.208362800069153	0.033304300042800605
1	16.195533900056034	stim	179		2	ambiguous	ambiguous	preferred	600.0	30.0		20.241667100111954	0.03361579996999353
1	16.229149700026028	stim	180		2	ambiguous	ambiguous	preferred	600.0	30.0		20.275282900081947	0.03365480003412813
1	16.262804500060156	stim	181		2	ambiguous	ambiguous	preferred	600.0	30.0		20.308937700116076	0.03350289992522448
1	16.29630739998538	stim	182		2	ambiguous	ambiguous	preferred	600.0	30.0		20.3424406000413	0.03310510003939271
1	16.329412500024773	stim	183		2	ambiguous	ambiguous	preferred	600.0	30.0		20.375545700080693	0.03353759995661676
1	16.36295009998139	stim	184		2	ambiguous	ambiguous	preferred	600.0	30.0		20.40908330003731	0.033759000012651086
1	16.39670909999404	stim	185		2	ambiguous	ambiguous	preferred	600.0	30.0		20.44284230004996	0.032901200000196695
1	16.429610299994238	stim	186		2	ambiguous	ambiguous	preferred	600.0	30.0		20.475743500050157	0.03420540003571659
1	16.463815700029954	stim	187		2	ambiguous	ambiguous	preferred	600.0	30.0		20.509948900085874	0.033674699952825904
1	16.49749039998278	stim	188		2	ambiguous	ambiguous	preferred	600.0	30.0		20.5436236000387	0.0329127999721095
1	16.53040319995489	stim	189		2	ambiguous	ambiguous	preferred	600.0	30.0		20.57653640001081	0.03366230009123683
1	16.564065500046127	stim	190		2	ambiguous	ambiguous	preferred	600.0	30.0		20.610198700102046	0.033401999971829355
1	16.597467500017956	stim	191		2	ambiguous	ambiguous	preferred	600.0	30.0		20.643600700073875	0.03328690002672374
1	16.63075440004468	stim	192		2	ambiguous	ambiguous	preferred	600.0	30.0		20.6768876001006	0.033802199992351234
1	16.66455660003703	stim	193		2	ambiguous	ambiguous	preferred	600.0	30.0		20.71068980009295	0.033394499914720654
1	16.69795109995175	stim	194		2	ambiguous	ambiguous	preferred	600.0	30.0		20.74408430000767	0.033056700020097196
1	16.73100779997185	stim	195		2	ambiguous	ambiguous	preferred	600.0	30.0		20.77714100002777	0.03336780006065965
1	16.76437560003251	stim	196		2	ambiguous	ambiguous	preferred	600.0	30.0		20.810508800088428	0.033309899969026446
1	16.797685500001535	stim	197		2	ambiguous	ambiguous	preferred	600.0	30.0		20.843818700057454	0.033319300040602684
1	16.831004800042138	stim	198		2	ambiguous	ambiguous	preferred	600.0	30.0		20.877138000098057	0.033313299994915724
1	16.864318100037053	stim	199		2	ambiguous	ambiguous	preferred	600.0	30.0		20.910451300092973	0.034796399995684624
1	16.899114500032738	stim	200		2	ambiguous	ambiguous	preferred	600.0	30.0		20.945247700088657	0.032880299957469106
1	16.931994799990207	stim	201		2	ambiguous	ambiguous	preferred	600.0	30.0		20.978128000046127	0.033168000052683055
1	16.96516280004289	stim	202		2	ambiguous	ambiguous	preferred	600.0	30.0		21.01129600009881	0.03335629997309297
1	16.998519100015983	stim	203		2	ambiguous	ambiguous	preferred	600.0	30.0		21.044652300071903	0.03367689996957779
1	17.03219599998556	stim	204		2	ambiguous	ambiguous	preferred	600.0	30.0		21.07832920004148	0.03314690000843257
1	17.065342899993993	stim	205		2	ambiguous	ambiguous	preferred	600.0	30.0		21.111476100049913	0.03437879995908588
1	17.09972169995308	stim	206		2	ambiguous	ambiguous	preferred	600.0	30.0		21.145854900009	0.032882000086829066
1	17.13260370003991	stim	207		2	ambiguous	ambiguous	preferred	600.0	30.0		21.178736900095828	0.03382759995292872
1	17.166431299992837	stim	208		2	ambiguous	ambiguous	preferred	600.0	30.0		21.212564500048757	0.03351810004096478
1	17.199949400033802	stim	209		2	ambiguous	ambiguous	preferred	600.0	30.0		21.24608260008972	0.03343840001616627
1	17.233387800049968	stim	210		2	ambiguous	ambiguous	preferred	600.0	30.0		21.279521000105888	0.03316659992560744
1	17.266554399975576	stim	211		2	ambiguous	ambiguous	preferred	600.0	30.0		21.312687600031495	0.03397930006030947
1	17.300533700035885	stim	212		2	ambiguous	ambiguous	preferred	600.0	30.0		21.346666900091805	0.03284400003030896
1	17.333377700066194	stim	213		2	ambiguous	ambiguous	preferred	600.0	30.0		21.379510900122114	0.03383089997805655
1	17.36720860004425	stim	214		2	ambiguous	ambiguous	preferred	600.0	30.0		21.41334180010017	0.03327539993915707
1	17.400483999983408	stim	215		2	ambiguous	ambiguous	preferred	600.0	30.0		21.446617200039327	0.03334510000422597
1	17.433829099987634	stim	216		2	ambiguous	ambiguous	preferred	600.0	30.0		21.479962300043553	0.03652409999631345
1	17.470353199983947	stim	217		2	ambiguous	ambiguous	preferred	600.0	30.0		21.516486400039867	0.05209810007363558
1	17.522451300057583	stim	218		2	ambiguous	ambiguous	preferred	600.0	30.0		21.568584500113502	0.02855169994290918
1	17.55100300000049	stim	219		2	ambiguous	ambiguous	preferred	600.0	30.0		21.59713620005641	0.03359650005586445
1	17.584599500056356	stim	220		2	ambiguous	ambiguous	preferred	600.0	30.0		21.630732700112276	0.03647589997854084
1	17.621075400034897	stim	221		2	ambiguous	ambiguous	preferred	600.0	30.0		21.667208600090817	0.03352269995957613
1	17.654598099994473	stim	222		2	ambiguous	ambiguous	preferred	600.0	30.0		21.700731300050393	0.03336910007055849
1	17.68796720006503	stim	223		2	ambiguous	ambiguous	preferred	600.0	30.0		21.73410040012095	0.03020689997356385
1	17.718174100038595	stim	224		2	ambiguous	ambiguous	preferred	600.0	30.0		21.764307300094515	0.036320499959401786
1	17.754494599997997	stim	225		2	ambiguous	ambiguous	preferred	600.0	30.0		21.800627800053917	0.033382700057700276
1	17.787877300055698	stim	226		2	ambiguous	ambiguous	preferred	600.0	30.0		21.834010500111617	0.03353399992920458
1	17.821411299984902	stim	227		2	ambiguous	ambiguous	preferred	600.0	30.0		21.86754450004082	0.033328099991194904
1	17.854739399976097	stim	228		2	ambiguous	ambiguous	preferred	600.0	30.0		21.900872600032017	0.03368250001221895
1	17.888421899988316	stim	229		2	ambiguous	ambiguous	preferred	600.0	30.0		21.934555100044236	0.03357500000856817
1	17.921996899996884	stim	230		2	ambiguous	ambiguous	preferred	600.0	30.0		21.968130100052804	0.034366399981081486
1	17.956363299977966	stim	231		2	ambiguous	ambiguous	preferred	600.0	30.0		22.002496500033885	0.02875220007263124
1	17.985115500050597	stim	232		2	ambiguous	ambiguous	preferred	600.0	30.0		22.031248700106516	0.03647990000899881
1	18.021595400059596	stim	233		2	ambiguous	ambiguous	preferred	600.0	30.0		22.067728600115515	0.03328139998484403
1	18.05487680004444	stim	234		2	ambiguous	ambiguous	preferred	600.0	30.0		22.10101000010036	0.033593099913559854
1	18.088469899958	stim	235		2	ambiguous	ambiguous	preferred	600.0	30.0		22.13460310001392	0.03330320003442466
1	18.121773099992424	stim	236		2	ambiguous	ambiguous	preferred	600.0	30.0		22.167906300048344	0.03347979998216033
1	18.155252899974585	stim	237		2	ambiguous	ambiguous	preferred	600.0	30.0		22.201386100030504	0.03305410000029951
1	18.188306999974884	stim	238		2	ambiguous	ambiguous	preferred	600.0	30.0		22.234440200030804	0.03340399998705834
1	18.221710999961942	stim	239		2	ambiguous	ambiguous	preferred	600.0	30.0		22.267844200017862	0.03322370001114905
1	18.25493469997309	stim	240		2	ambiguous	ambiguous	preferred	600.0	30.0		22.30106790002901	0.033412500051781535
1	18.288347200024873	stim	241		2	ambiguous	ambiguous	preferred	600.0	30.0		22.334480400080793	0.03238350001629442
1	18.320730700041167	stim	242		2	ambiguous	ambiguous	preferred	600.0	30.0		22.366863900097087	0.03445179993286729
1	18.355182499974035	stim	243		2	ambiguous	ambiguous	preferred	600.0	30.0		22.401315700029954	0.034810799988918006
1	18.389993299962953	stim	244		2	ambiguous	ambiguous	preferred	600.0	30.0		22.436126500018872	0.03194230003282428
1	18.421935599995777	stim	245		2	ambiguous	ambiguous	preferred	600.0	30.0		22.468068800051697	0.04969190002884716
1	18.471627500024624	stim	246		2	ambiguous	ambiguous	preferred	600.0	30.0		22.517760700080544	0.03339390002656728
1	18.50502140005119	stim	247		2	ambiguous	ambiguous	preferred	600.0	30.0		22.55115460010711	0.03365299990400672
1	18.538674399955198	stim	248		2	ambiguous	ambiguous	preferred	600.0	30.0		22.584807600011118	0.03480030002538115
1	18.57347469998058	stim	249		2	ambiguous	ambiguous	preferred	600.0	30.0		22.6196079000365	0.03154450003057718
1	18.605019200011156	stim	250		2	ambiguous	ambiguous	preferred	600.0	30.0		22.651152400067076	0.033258500043302774
1	18.63827770005446	stim	251		2	ambiguous	ambiguous	preferred	600.0	30.0		22.68441090011038	0.033444899949245155
1	18.671722600003704	stim	252		2	ambiguous	ambiguous	preferred	600.0	30.0		22.717855800059624	0.03313340002205223
1	18.704856000025757	stim	253		2	ambiguous	ambiguous	preferred	600.0	30.0		22.750989200081676	0.03369469998870045
1	18.738550700014457	stim	254		2	ambiguous	ambiguous	preferred	600.0	30.0		22.784683900070377	0.03303960000630468
1	18.771590300020762	stim	255		2	ambiguous	ambiguous	preferred	600.0	30.0		22.81772350007668	0.035273300018161535
1	18.806863600038923	stim	256		2	ambiguous	ambiguous	preferred	600.0	30.0		22.852996800094843	0.03128969995304942
1	18.838153299991973	stim	257		2	ambiguous	ambiguous	preferred	600.0	30.0		22.884286500047892	0.032257999991998076
1	18.87041129998397	stim	258		2	ambiguous	ambiguous	preferred	600.0	30.0		22.91654450003989	0.03454180003609508
1	18.904953100020066	stim	259		2	ambiguous	ambiguous	preferred	600.0	30.0		22.951086300075985	0.03337439999449998
1	18.938327500014566	stim	260		2	ambiguous	ambiguous	preferred	600.0	30.0		22.984460700070485	0.03360850003082305
1	18.97193600004539	stim	261		2	ambiguous	ambiguous	preferred	600.0	30.0		23.01806920010131	0.03319360001478344
1	19.005129600060172	stim	262		2	ambiguous	ambiguous	preferred	600.0	30.0		23.051262800116092	0.033182799932546914
1	19.03831239999272	stim	263		2	ambiguous	ambiguous	preferred	600.0	30.0		23.08444560004864	0.03323269996326417
1	19.071545099955983	stim	264		2	ambiguous	ambiguous	preferred	600.0	30.0		23.117678300011903	0.03333450003992766
1	19.10487959999591	stim	265		2	ambiguous	ambiguous	preferred	600.0	30.0		23.15101280005183	0.03318410005886108
1	19.138063700054772	stim	266		2	ambiguous	ambiguous	preferred	600.0	30.0		23.184196900110692	0.0338307999772951
1	19.171894500032067	stim	267		2	ambiguous	ambiguous	preferred	600.0	30.0		23.218027700087987	0.03326159995049238
1	19.20515609998256	stim	268		2	ambiguous	ambiguous	preferred	600.0	30.0		23.25128930003848	0.03488440008368343
1	19.240040500066243	stim	269		2	ambiguous	ambiguous	preferred	600.0	30.0		23.286173700122163	0.03151389991398901
1	19.271554399980232	stim	270		2	ambiguous	ambiguous	preferred	600.0	30.0		23.31768760003615	0.03327870008070022
1	19.304833100060932	stim	271		2	ambiguous	ambiguous	preferred	600.0	30.0		23.350966300116852	0.03330819995608181
1	19.338141300017014	stim	272		2	ambiguous	ambiguous	preferred	600.0	30.0		23.384274500072934	0.03368100000079721
1	19.37182230001781	stim	273		2	ambiguous	ambiguous	preferred	600.0	30.0		23.41795550007373	0.03359270002692938
1	19.40541500004474	stim	274		2	ambiguous	ambiguous	preferred	600.0	30.0		23.45154820010066	0.034584200009703636
1	19.439999200054444	stim	275		2	ambiguous	ambiguous	preferred	600.0	30.0		23.486132400110364	0.03165259992238134
1	19.471651799976826	stim	276		2	ambiguous	ambiguous	preferred	600.0	30.0		23.517785000032745	0.03323390008881688
1	19.504885700065643	stim	277		2	ambiguous	ambiguous	preferred	600.0	30.0		23.551018900121562	0.03328589990269393
1	19.538171599968337	stim	278		2	ambiguous	ambiguous	preferred	600.0	30.0		23.584304800024256	0.033320500049740076
1	19.571492100018077	stim	279		2	ambiguous	ambiguous	preferred	600.0	30.0		23.617625300073996	0.033846299978904426
1	19.60533839999698	stim	280		2	ambiguous	ambiguous	preferred	600.0	30.0		23.6514716000529	0.033006399986334145
1	19.638344799983315	stim	281		2	ambiguous	ambiguous	preferred	600.0	30.0		23.684478000039235	0.03512290003709495
1	19.67346770002041	stim	282		2	ambiguous	ambiguous	preferred	600.0	30.0		23.71960090007633	0.03147619997616857
1	19.70494389999658	stim	283		2	ambiguous	ambiguous	preferred	600.0	30.0		23.7510771000525	0.03319220000412315
1	19.738136100000702	stim	284		2	ambiguous	ambiguous	preferred	600.0	30.0		23.78426930005662	0.0334098000312224
1	19.771545900031924	stim	285		2	ambiguous	ambiguous	preferred	600.0	30.0		23.817679100087844	0.0337494999403134
1	19.805295399972238	stim	286		2	ambiguous	ambiguous	preferred	600.0	30.0		23.851428600028157	0.03384260006714612
1	19.839138000039384	stim	287		2	ambiguous	ambiguous	preferred	600.0	30.0		23.885271200095303	0.03308259998448193
1	19.872220600023866	stim	288		2	ambiguous	ambiguous	preferred	600.0	30.0		23.918353800079785	0.04952280002180487
1	19.92174340004567	stim	289		2	ambiguous	ambiguous	preferred	600.0	30.0		23.96787660010159	0.04963929997757077
1	19.97138270002324	stim	290		2	ambiguous	ambiguous	preferred	600.0	30.0		24.01751590007916	0.03349049994722009
1	20.00487319997046	stim	291		2	ambiguous	ambiguous	preferred	600.0	30.0		24.05100640002638	0.03406950004864484
1	20.038942700019106	stim	292		2	ambiguous	ambiguous	preferred	600.0	30.0		24.085075900075026	0.03294950001873076
1	20.071892200037837	stim	293		2	ambiguous	ambiguous	preferred	600.0	30.0		24.118025400093757	0.034766600001603365
1	20.10665880003944	stim	294		2	ambiguous	ambiguous	preferred	600.0	30.0		24.15279200009536	0.03172109997831285
1	20.138379900017753	stim	295		2	ambiguous	ambiguous	preferred	600.0	30.0		24.184513100073673	0.0334529000101611
1	20.171832800027914	stim	296		2	ambiguous	ambiguous	preferred	600.0	30.0		24.217966000083834	0.033299800008535385
1	20.20513260003645	stim	297		2	ambiguous	ambiguous	preferred	600.0	30.0		24.25126580009237	0.03392229997552931
1	20.23905490001198	stim	298		2	ambiguous	ambiguous	preferred	600.0	30.0		24.2851881000679	0.03317770001012832
1	20.272232600022107	stim	299		2	ambiguous	ambiguous	preferred	600.0	30.0		24.318365800078027	0.03315969998948276
1	20.30539230001159	stim	300		2	ambiguous	ambiguous	preferred	600.0	30.0		24.35152550006751	0.033187299966812134
1	20.338579599978402	stim	301		2	ambiguous	ambiguous	preferred	600.0	30.0		24.384712800034322	0.03332739998586476
1	20.371906999964267	stim	302		2	ambiguous	ambiguous	preferred	600.0	30.0		24.418040200020187	0.033670500037260354
1	20.405577500001527	stim	303		2	ambiguous	ambiguous	preferred	600.0	30.0		24.451710700057447	0.0337958000600338
1	20.43937330006156	stim	304		2	ambiguous	ambiguous	preferred	600.0	30.0		24.48550650011748	0.03377019998151809
1	20.47314350004308	stim	305		2	ambiguous	ambiguous	preferred	600.0	30.0		24.519276700099	0.04993699991609901
1	20.52308049995918	stim	306		2	ambiguous	ambiguous	preferred	600.0	30.0		24.569213700015098	0.033843500073999166
1	20.556924000033177	stim	307		2	ambiguous	ambiguous	preferred	600.0	30.0		24.603057200089097	0.03331129997968674
1	20.590235300012864	stim	308		2	ambiguous	ambiguous	preferred	600.0	30.0		24.636368500068784	0.03312719997484237
1	20.623362499987707	stim	309		2	ambiguous	ambiguous	preferred	600.0	30.0		24.669495700043626	0.050978200044482946
1	20.67434070003219	stim	310		2	ambiguous	ambiguous	preferred	600.0	30.0		24.72047390008811	0.03256129997316748
1	20.706902000005357	stim	311		2	ambiguous	ambiguous	preferred	600.0	30.0		24.753035200061277	0.04980429995339364
1	20.75670629995875	stim	312		2	ambiguous	ambiguous	preferred	600.0	30.0		24.80283950001467	0.03339220001362264
1	20.790098499972373	stim	313		2	ambiguous	ambiguous	preferred	600.0	30.0		24.836231700028293	0.04982760001439601
1	20.83992609998677	stim	314		2	ambiguous	ambiguous	preferred	600.0	30.0		24.88605930004269	0.03392900002654642
1	20.873855100013316	stim	315		2	ambiguous	ambiguous	preferred	600.0	30.0		24.919988300069235	0.03307719994336367
1	20.90693229995668	stim	316		2	ambiguous	ambiguous	preferred	600.0	30.0		24.9530655000126	0.034515000064857304
1	20.941447300021537	stim	317		2	ambiguous	ambiguous	preferred	600.0	30.0		24.987580500077456	0.032012099982239306
1	20.973459400003776	stim	318		2	ambiguous	ambiguous	preferred	600.0	30.0		25.019592600059696	0.0337450000224635
1	21.00720440002624	stim	319		2	ambiguous	ambiguous	preferred	600.0	30.0		25.05333760008216	0.03323389997240156
1	21.04043829999864	stim	320		2	ambiguous	ambiguous	preferred	600.0	30.0		25.08657150005456	0.03361160005442798
1	21.07404990005307	stim	321		2	ambiguous	ambiguous	preferred	600.0	30.0		25.12018310010899	0.03346659999806434
1	21.107516500051133	stim	322		2	ambiguous	ambiguous	preferred	600.0	30.0		25.153649700107053	0.04964869993273169
1	21.157165199983865	stim	323		2	ambiguous	ambiguous	preferred	600.0	30.0		25.203298400039785	0.033324999967589974
1	21.190490199951455	stim	324		2	ambiguous	ambiguous	preferred	600.0	30.0		25.236623400007375	0.033590200007893145
1	21.224080399959348	stim	325		2	ambiguous	ambiguous	preferred	600.0	30.0		25.270213600015268	0.033312000101432204
1	21.25739240006078	stim	326		2	ambiguous	ambiguous	preferred	600.0	30.0		25.3035256001167	0.03375539998523891
1	21.29114780004602	stim	327		2	ambiguous	ambiguous	preferred	600.0	30.0		25.33728100010194	0.03305719990748912
1	21.32420499995351	stim	328		2	ambiguous	ambiguous	preferred	600.0	30.0		25.370338200009428	0.033372500096447766
1	21.357577500049956	stim	329		2	ambiguous	ambiguous	preferred	600.0	30.0		25.403710700105876	0.03337650001049042
1	21.390954000060447	stim	330		2	ambiguous	ambiguous	preferred	600.0	30.0		25.437087200116366	0.03311769990250468
1	21.42407169996295	stim	331		2	ambiguous	ambiguous	preferred	600.0	30.0		25.47020490001887	0.033452200004830956
1	21.457523899967782	stim	332		2	ambiguous	ambiguous	preferred	600.0	30.0		25.503657100023702	0.03400330001022667
1	21.49152719997801	stim	333		2	ambiguous	ambiguous	preferred	600.0	30.0		25.53766040003393	0.03327880008146167
1	21.52480600005947	stim	334		2	ambiguous	ambiguous	preferred	600.0	30.0		25.57093920011539	0.05017859989311546
1	21.574984599952586	stim	335		2	ambiguous	ambiguous	preferred	600.0	30.0		25.621117800008506	0.03365460003260523
1	21.60863919998519	stim	336		2	ambiguous	ambiguous	preferred	600.0	30.0		25.65477240004111	0.04969040001742542
1	21.658329600002617	stim	337		2	ambiguous	ambiguous	preferred	600.0	30.0		25.704462800058536	0.03395589999854565
1	21.692285500001162	stim	338		2	ambiguous	ambiguous	preferred	600.0	30.0		25.738418700057082	0.03364090004470199
1	21.725926400045864	stim	339		2	ambiguous	ambiguous	preferred	600.0	30.0		25.772059600101784	0.04953879991080612
1	21.77546519995667	stim	340		2	ambiguous	ambiguous	preferred	600.0	30.0		25.82159840001259	0.033443600055761635
1	21.808908800012432	stim	341		2	ambiguous	ambiguous	preferred	600.0	30.0		25.85504200006835	0.05006979999598116
1	21.858978600008413	stim	342		2	ambiguous	ambiguous	preferred	600.0	30.0		25.905111800064333	0.033233199967071414
1	21.892211799975485	stim	343		2	ambiguous	ambiguous	preferred	600.0	30.0		25.938345000031404	0.03396120003890246
1	21.926173000014387	stim	344		2	ambiguous	ambiguous	preferred	600.0	30.0		25.972306200070307	0.03300089994445443
1	21.95917389995884	stim	345		2	ambiguous	ambiguous	preferred	600.0	30.0		26.00530710001476	0.03345640003681183
1	21.992630299995653	stim	346		2	ambiguous	ambiguous	preferred	600.0	30.0		26.038763500051573	0.03328279999550432
1	22.025913099991158	stim	347		2	ambiguous	ambiguous	preferred	600.0	30.0		26.072046300047077	0.03343489998951554
1	22.059347999980673	stim	348		2	ambiguous	ambiguous	preferred	600.0	30.0		26.105481200036593	0.03332970000337809
1	22.09267769998405	stim	349		2	ambiguous	ambiguous	preferred	600.0	30.0		26.13881090003997	0.033728000009432435
1	22.126405699993484	stim	350		2	ambiguous	ambiguous	preferred	600.0	30.0		26.172538900049403	0.04983530007302761
1	22.17624100006651	stim	351		2	ambiguous	ambiguous	preferred	600.0	30.0		26.22237420012243	0.033352799946442246
1	22.209593800012954	stim	352		2	ambiguous	ambiguous	preferred	600.0	30.0		26.255727000068873	0.033253700006753206
1	22.242847500019707	stim	353		2	ambiguous	ambiguous	preferred	600.0	30.0		26.288980700075626	0.03335519996471703
1	22.276202699984424	stim	354		2	ambiguous	ambiguous	preferred	600.0	30.0		26.322335900040343	0.050183000043034554
1	22.32638570002746	stim	355		2	ambiguous	ambiguous	preferred	600.0	30.0		26.372518900083378	0.049866899964399636
1	22.376252599991858	stim	356		2	ambiguous	ambiguous	preferred	600.0	30.0		26.422385800047778	0.05003949999809265
1	22.42629209998995	stim	357		2	ambiguous	ambiguous	preferred	600.0	30.0		26.47242530004587	0.03342100000008941
1	22.45971309999004	stim	358		2	ambiguous	ambiguous	preferred	600.0	30.0		26.50584630004596	0.05001800006721169
1	22.50973110005725	stim	359		2	ambiguous	ambiguous	preferred	600.0	30.0		26.55586430011317	0.050286199897527695
1	22.56001729995478	stim	360		2	ambiguous	ambiguous	preferred	600.0	30.0		26.6061505000107	0.049707100028172135
1	22.60972439998295	stim	361		2	ambiguous	ambiguous	preferred	600.0	30.0		26.65585760003887	0.050015400047414005
1	22.659739800030366	stim	362		2	ambiguous	ambiguous	preferred	600.0	30.0		26.705873000086285	0.05034680000972003
1	22.710086600040086	stim	363		2	ambiguous	ambiguous	preferred	600.0	30.0		26.756219800096005	0.05034900002647191
1	22.760435600066558	stim	364		2	ambiguous	ambiguous	preferred	600.0	30.0		26.806568800122477	0.03313119988888502
1	22.793566799955443	stim	365		2	ambiguous	ambiguous	preferred	600.0	30.0		26.839700000011362	0.03330860007554293
1	22.826875400030985	stim	366		2	ambiguous	ambiguous	preferred	600.0	30.0		26.873008600086905	0.04996690002735704
1	22.876842300058343	stim	367		2	ambiguous	ambiguous	preferred	600.0	30.0		26.922975500114262	0.049792899983003736
1	22.926635200041346	stim	368		2	ambiguous	ambiguous	preferred	600.0	30.0		26.972768400097266	0.03346069995313883
1	22.960095899994485	stim	369		2	ambiguous	ambiguous	preferred	600.0	30.0		27.006229100050405	0.050136900041252375
1	23.010232800035737	stim	370		2	ambiguous	ambiguous	preferred	600.0	30.0		27.056366000091657	0.03327329992316663
1	23.043506099958904	stim	371		2	ambiguous	ambiguous	preferred	600.0	30.0		27.089639300014824	0.033409600029699504
1	23.076915699988604	stim	372		2	ambiguous	ambiguous	preferred	600.0	30.0		27.123048900044523	0.05008519999682903
1	23.127000899985433	stim	373		2	ambiguous	ambiguous	preferred	600.0	30.0		27.173134100041352	0.033449499984271824
1	23.160450399969704	stim	374		2	ambiguous	ambiguous	preferred	600.0	30.0		27.206583600025624	0.03363640001043677
1	23.19408679998014	stim	375		2	ambiguous	ambiguous	preferred	600.0	30.0		27.24022000003606	0.03311950003262609
1	23.227206300012767	stim	376		2	ambiguous	ambiguous	preferred	600.0	30.0		27.273339500068687	0.03323409997392446
1	23.26044039998669	stim	377		2	ambiguous	ambiguous	preferred	600.0	30.0		27.30657360004261	0.03331389999948442
1	23.293754299986176	stim	378		2	ambiguous	ambiguous	preferred	600.0	30.0		27.339887500042096	0.03335789998527616
1	23.327112199971452	stim	379		2	ambiguous	ambiguous	preferred	600.0	30.0		27.373245400027372	0.033320700051262975
1	23.360432900022715	stim	380		2	ambiguous	ambiguous	preferred	600.0	30.0		27.406566100078635	0.03377600002568215
1	23.394208900048397	stim	381		2	ambiguous	ambiguous	preferred	600.0	30.0		27.440342100104317	0.03336899995338172
1	23.42757790000178	stim	382		2	ambiguous	ambiguous	preferred	600.0	30.0		27.4737111000577	0.03324809996411204
1	23.46082599996589	stim	383		2	ambiguous	ambiguous	preferred	600.0	30.0		27.50695920002181	0.03314499999396503
1	23.493970999959856	stim	384		2	ambiguous	ambiguous	preferred	600.0	30.0		27.540104200015776	0.03347140003461391
1	23.52744239999447	stim	385		2	ambiguous	ambiguous	preferred	600.0	30.0		27.57357560005039	0.03340730001218617
1	23.560849700006656	stim	386		2	ambiguous	ambiguous	preferred	600.0	30.0		27.606982900062576	0.03358469996601343
1	23.59443439997267	stim	387		2	ambiguous	ambiguous	preferred	600.0	30.0		27.64056760002859	0.03366489999461919
1	23.62809929996729	stim	388		2	ambiguous	ambiguous	preferred	600.0	30.0		27.67423250002321	0.049520400003530085
1	23.67761969997082	stim	389		2	ambiguous	ambiguous	preferred	600.0	30.0		27.72375290002674	0.0334842000156641
1	23.711103899986483	stim	390		2	ambiguous	ambiguous	preferred	600.0	30.0		27.757237100042403	0.04979530000127852
1	23.76089919998776	stim	391		2	ambiguous	ambiguous	preferred	600.0	30.0		27.80703240004368	0.033437500009313226
1	23.794336699997075	stim	392		2	ambiguous	ambiguous	preferred	600.0	30.0		27.840469900052994	0.033711700001731515
1	23.828048399998806	stim	393		2	ambiguous	ambiguous	preferred	600.0	30.0		27.874181600054726	0.034649500041268766
1	23.862697900040075	stim	394		2	ambiguous	ambiguous	preferred	600.0	30.0		27.908831100095995	0.03187349997460842
1	23.894571400014684	stim	395		2	ambiguous	ambiguous	preferred	600.0	30.0		27.940704600070603	0.04998000001069158
1	23.944551400025375	stim	396		2	ambiguous	ambiguous	preferred	600.0	30.0		27.990684600081295	0.04988880001474172
1	23.994440200040117	stim	397		2	ambiguous	ambiguous	preferred	600.0	30.0		28.040573400096036	0.03355569997802377
1	24.02799590001814	stim	398		2	ambiguous	ambiguous	preferred	600.0	30.0		28.07412910007406	0.034075899980962276
1	24.062071799999103	stim	399		2	ambiguous	ambiguous	preferred	600.0	30.0		28.108205000055023	0.04920989996753633
1	24.11128169996664	stim	400		2	ambiguous	ambiguous	preferred	600.0	30.0		28.15741490002256	0.03343080007471144
1	24.14471250004135	stim	401		2	ambiguous	ambiguous	preferred	600.0	30.0		28.19084570009727	0.03324269992299378
1	24.177955199964345	stim	402		2	ambiguous	ambiguous	preferred	600.0	30.0		28.224088400020264	0.04982630000449717
1	24.22778149996884	stim	403		2	ambiguous	ambiguous	preferred	600.0	30.0		28.27391470002476	0.0337332000490278
1	24.26151470001787	stim	404		2	ambiguous	ambiguous	preferred	600.0	30.0		28.30764790007379	0.03310789994429797
1	24.294622599962167	stim	405		2	ambiguous	ambiguous	preferred	600.0	30.0		28.340755800018087	0.03332330007106066
1	24.327945900033228	stim	406		2	ambiguous	ambiguous	preferred	600.0	30.0		28.374079100089148	0.03353899996727705
1	24.361484900000505	stim	407		2	ambiguous	ambiguous	preferred	600.0	30.0		28.407618100056425	0.033578300033695996
1	24.3950632000342	stim	408		2	ambiguous	ambiguous	preferred	600.0	30.0		28.44119640009012	0.04983549995813519
1	24.444898699992336	stim	409		2	ambiguous	ambiguous	preferred	600.0	30.0		28.491031900048256	0.03395069995895028
1	24.478849399951287	stim	410		2	ambiguous	ambiguous	preferred	600.0	30.0		28.524982600007206	0.034014000091701746
1	24.51286340004299	stim	411		2	ambiguous	ambiguous	preferred	600.0	30.0		28.558996600098908	0.04880210000555962
1	24.561665500048548	stim	412		2	ambiguous	ambiguous	preferred	600.0	30.0		28.607798700104468	0.03361049992963672
1	24.595275999978185	stim	413		2	ambiguous	ambiguous	preferred	600.0	30.0		28.641409200034104	0.03317880001850426
1	24.62845479999669	stim	414		2	ambiguous	ambiguous	preferred	600.0	30.0		28.67458800005261	0.03436100005637854
1	24.662815800053068	stim	415		2	ambiguous	ambiguous	preferred	600.0	30.0		28.708949000108987	0.033838699921034276
1	24.696654499974102	stim	416		2	ambiguous	ambiguous	preferred	600.0	30.0		28.74278770003002	0.03350190003402531
1	24.730156400008127	stim	417		2	ambiguous	ambiguous	preferred	600.0	30.0		28.776289600064047	0.04991870000958443
1	24.78007510001771	stim	418		2	ambiguous	ambiguous	preferred	600.0	30.0		28.82620830007363	0.03323099995031953
1	24.81330609996803	stim	419		2	ambiguous	ambiguous	preferred	600.0	30.0		28.85943930002395	0.03380920004565269
1	24.847115300013684	stim	420		2	ambiguous	ambiguous	preferred	600.0	30.0		28.893248500069603	0.03332719998434186
1	24.880442499998026	stim	421		2	ambiguous	ambiguous	preferred	600.0	30.0		28.926575700053945	0.03303649998269975
1	24.913478999980725	stim	422		2	ambiguous	ambiguous	preferred	600.0	30.0		28.959612200036645	0.050323800067417324
1	24.963802800048143	stim	423		2	ambiguous	ambiguous	preferred	600.0	30.0		29.009936000104062	0.03354959993157536
1	24.997352399979718	stim	424		2	ambiguous	ambiguous	preferred	600.0	30.0		29.043485600035638	0.050048000062815845
1	25.047400400042534	stim	425		2	ambiguous	ambiguous	preferred	600.0	30.0		29.093533600098453	0.033545800019055605
1	25.08094620006159	stim	426		2	ambiguous	ambiguous	preferred	600.0	30.0		29.12707940011751	0.03320119995623827
1	25.114147400017828	stim	427		2	ambiguous	ambiguous	preferred	600.0	30.0		29.160280600073747	0.03342330001760274
1	25.14757070003543	stim	428		2	ambiguous	ambiguous	preferred	600.0	30.0		29.19370390009135	0.03368549991864711
1	25.181256199954078	stim	429		2	ambiguous	ambiguous	preferred	600.0	30.0		29.227389400009997	0.04992430005222559
1	25.231180500006303	stim	430		2	ambiguous	ambiguous	preferred	600.0	30.0		29.277313700062223	0.032929299981333315
1	25.264109799987637	stim	431		2	ambiguous	ambiguous	preferred	600.0	30.0		29.310243000043556	0.03411230002529919
1	25.298222100012936	stim	432		2	ambiguous	ambiguous	preferred	600.0	30.0		29.344355300068855	0.033101400011219084
1	25.331323500024155	stim	433		2	ambiguous	ambiguous	preferred	600.0	30.0		29.377456700080074	0.033431399962864816
1	25.36475489998702	stim	434		2	ambiguous	ambiguous	preferred	600.0	30.0		29.41088810004294	0.03358679998200387
1	25.398341699969023	stim	435		2	ambiguous	ambiguous	preferred	600.0	30.0		29.444474900024943	0.03307650005444884
1	25.431418200023472	stim	436		2	ambiguous	ambiguous	preferred	600.0	30.0		29.477551400079392	0.03331530001014471
1	25.464733500033617	stim	437		2	ambiguous	ambiguous	preferred	600.0	30.0		29.510866700089537	0.03403280000202358
1	25.49876630003564	stim	438		2	ambiguous	ambiguous	preferred	600.0	30.0		29.54489950009156	0.033200399950146675
1	25.531966699985787	stim	439		2	ambiguous	ambiguous	preferred	600.0	30.0		29.578099900041707	0.0339745000237599
1	25.565941200009547	stim	440		2	ambiguous	ambiguous	preferred	600.0	30.0		29.612074400065467	0.033398799947462976
1	25.59933999995701	stim	441		2	ambiguous	ambiguous	preferred	600.0	30.0		29.64547320001293	0.03378490009345114
1	25.63312490005046	stim	442		2	ambiguous	ambiguous	preferred	600.0	30.0		29.67925810010638	0.03362319990992546
1	25.666748099960387	stim	443		2	ambiguous	ambiguous	preferred	600.0	30.0		29.712881300016306	0.03365660004783422
1	25.70040470000822	stim	444		2	ambiguous	ambiguous	preferred	600.0	30.0		29.74653790006414	0.03318959998432547
1	25.733594299992546	stim	445		2	ambiguous	ambiguous	preferred	600.0	30.0		29.779727500048466	0.03323140006978065
1	25.766825700062327	stim	446		2	ambiguous	ambiguous	preferred	600.0	30.0		29.812958900118247	0.03342759993392974
1	25.800253299996257	stim	447		2	ambiguous	ambiguous	preferred	600.0	30.0		29.846386500052176	0.033258400042541325
1	25.833511700038798	stim	448		2	ambiguous	ambiguous	preferred	600.0	30.0		29.879644900094718	0.03339280001819134
1	25.86690450005699	stim	449		2	ambiguous	ambiguous	preferred	600.0	30.0		29.91303770011291	0.05406629992648959
1	25.92097079998348	stim	450		2	ambiguous	ambiguous	preferred	600.0	30.0		29.9671040000394	0.048053600010462105
1	25.96902439999394	stim	451		2	ambiguous	ambiguous	preferred	600.0	30.0		30.01515760004986	0.04821699997410178
1	26.017241399968043	stim	452		2	ambiguous	ambiguous	preferred	600.0	30.0		30.063374600023963	0.0333049000473693
1	26.050546300015412	stim	453		2	ambiguous	ambiguous	preferred	600.0	30.0		30.096679500071332	0.033411100041121244
1	26.083957400056534	stim	454		2	ambiguous	ambiguous	preferred	600.0	30.0		30.130090600112453	0.03343939990736544
1	26.1173967999639	stim	455		2	ambiguous	ambiguous	preferred	600.0	30.0		30.16353000001982	0.03688200004398823
1	26.154278800007887	stim	456		2	ambiguous	ambiguous	preferred	600.0	30.0		30.200412000063807	0.029808899969793856
1	26.18408769997768	stim	457		2	ambiguous	ambiguous	preferred	600.0	30.0		30.2302209000336	0.03343130007851869
1	26.2175190000562	stim	458		2	ambiguous	ambiguous	preferred	600.0	30.0		30.26365220011212	0.03331410000100732
1	26.250833100057207	stim	459		2	ambiguous	ambiguous	preferred	600.0	30.0		30.296966300113127	0.03333249990828335
1	26.28416559996549	stim	460		2	ambiguous	ambiguous	preferred	600.0	30.0		30.33029880002141	0.0333360000513494
1	26.31750160001684	stim	461		2	ambiguous	ambiguous	preferred	600.0	30.0		30.36363480007276	0.033609700039960444
1	26.3511113000568	stim	462		2	ambiguous	ambiguous	preferred	600.0	30.0		30.39724450011272	0.0330719999037683
1	26.38418329996057	stim	463		2	ambiguous	ambiguous	preferred	600.0	30.0		30.430316500016488	0.03340700000990182
1	26.41759029997047	stim	464		2	ambiguous	ambiguous	preferred	600.0	30.0		30.46372350002639	0.03686820005532354
1	26.454458500025794	stim	465		2	ambiguous	ambiguous	preferred	600.0	30.0		30.500591700081713	0.03334540000651032
1	26.487803900032304	stim	466		2	ambiguous	ambiguous	preferred	600.0	30.0		30.533937100088224	0.033467100001871586
1	26.521271000034176	stim	467		2	ambiguous	ambiguous	preferred	600.0	30.0		30.567404200090095	0.03366219997406006
1	26.554933200008236	stim	468		2	ambiguous	ambiguous	preferred	600.0	30.0		30.601066400064155	0.04953249997925013
1	26.604465699987486	stim	469		2	ambiguous	ambiguous	preferred	600.0	30.0		30.650598900043406	0.03337299998383969
1	26.637838699971326	stim	470		2	ambiguous	ambiguous	preferred	600.0	30.0		30.683971900027245	0.030200100038200617
1	26.668038800009526	stim	471		2	ambiguous	ambiguous	preferred	600.0	30.0		30.714172000065446	0.03643570002168417
1	26.70447450003121	stim	472		2	ambiguous	ambiguous	preferred	600.0	30.0		30.75060770008713	0.03334209998138249
1	26.737816600012593	stim	473		2	ambiguous	ambiguous	preferred	600.0	30.0		30.783949800068513	0.03386349999345839
1	26.77168010000605	stim	474		2	ambiguous	ambiguous	preferred	600.0	30.0		30.81781330006197	0.032966500031761825
1	26.804646600037813	stim	475		2	ambiguous	ambiguous	preferred	600.0	30.0		30.850779800093733	0.03337660001125187
1	26.838023200049065	stim	476		2	ambiguous	ambiguous	preferred	600.0	30.0		30.884156400104985	0.03347099991515279
1	26.871494199964218	stim	477		2	ambiguous	ambiguous	preferred	600.0	30.0		30.917627400020137	0.0331811000360176
1	26.904675300000235	stim	478		2	ambiguous	ambiguous	preferred	600.0	30.0		30.950808500056155	0.033992000040598214
1	26.938667300040834	stim	479		2	ambiguous	ambiguous	preferred	600.0	30.0		30.984800500096753	0.04998369992244989
1	26.988650999963284	stim	480		2	ambiguous	ambiguous	preferred	600.0	30.0		31.034784200019203	0.032785600051283836
1	27.021436600014567	stim	481		2	ambiguous	ambiguous	preferred	600.0	30.0		31.067569800070487	0.03335239994339645
1	27.054788999957964	stim	482		2	ambiguous	ambiguous	preferred	600.0	30.0		31.100922200013883	0.033248100080527365
1	27.08803710003849	stim	483		2	ambiguous	ambiguous	preferred	600.0	30.0		31.13417030009441	0.033261299948208034
1	27.1212983999867	stim	484		2	ambiguous	ambiguous	preferred	600.0	30.0		31.16743160004262	0.03391140000894666
1	27.155209799995646	stim	485		2	ambiguous	ambiguous	preferred	600.0	30.0		31.201343000051565	0.03306190005969256
1	27.18827170005534	stim	486		2	ambiguous	ambiguous	preferred	600.0	30.0		31.234404900111258	0.03490609989967197
1	27.22317779995501	stim	487		2	ambiguous	ambiguous	preferred	600.0	30.0		31.26931100001093	0.030274200020357966
1	27.25345199997537	stim	488		2	ambiguous	ambiguous	preferred	600.0	30.0		31.299585200031288	0.03447260009124875
1	27.287924600066617	stim	489		2	ambiguous	ambiguous	preferred	600.0	30.0		31.334057800122537	0.033346799900755286
1	27.321271399967372	stim	490		2	ambiguous	ambiguous	preferred	600.0	30.0		31.367404600023292	0.03359280002769083
1	27.354864199995063	stim	491		2	ambiguous	ambiguous	preferred	600.0	30.0		31.400997400050983	0.03319099999498576
1	27.38805519999005	stim	492		2	ambiguous	ambiguous	preferred	600.0	30.0		31.43418840004597	0.03396709996741265
1	27.42202229995746	stim	493		2	ambiguous	ambiguous	preferred	600.0	30.0		31.46815550001338	0.03267099999357015
1	27.454693299951032	stim	494		2	ambiguous	ambiguous	preferred	600.0	30.0		31.50082650000695	0.033363700029440224
1	27.488056999980472	stim	495		2	ambiguous	ambiguous	preferred	600.0	30.0		31.53419020003639	0.033428900060243905
1	27.521485900040716	stim	496		2	ambiguous	ambiguous	preferred	600.0	30.0		31.567619100096636	0.03383799991570413
1	27.55532389995642	stim	497		2	ambiguous	ambiguous	preferred	600.0	30.0		31.60145710001234	0.031673300080001354
1	27.58699720003642	stim	498		2	ambiguous	ambiguous	preferred	600.0	30.0		31.63313040009234	0.034504199982620776
1	27.621501400019042	stim	499		2	ambiguous	ambiguous	preferred	600.0	30.0		31.667634600074962	0.03496640000957996
1	27.656467800028622	stim	500		2	ambiguous	ambiguous	preferred	600.0	30.0		31.70260100008454	0.03156359994318336
1	27.688031399971806	stim	501		2	ambiguous	ambiguous	preferred	600.0	30.0		31.734164600027725	0.033347300020977855
1	27.721378699992783	stim	502		2	ambiguous	ambiguous	preferred	600.0	30.0		31.767511900048703	0.033332400023937225
1	27.75471110001672	stim	503		2	ambiguous	ambiguous	preferred	600.0	30.0		31.80084430007264	0.03362759994342923
1	27.78833869996015	stim	504		2	ambiguous	ambiguous	preferred	600.0	30.0		31.83447190001607	0.03526130004320294
1	27.823600000003353	stim	505		2	ambiguous	ambiguous	preferred	600.0	30.0		31.869733200059272	0.031594600062817335
1	27.85519460006617	stim	506		2	ambiguous	ambiguous	preferred	600.0	30.0		31.90132780012209	0.03271699999459088
1	27.88791160006076	stim	507		2	ambiguous	ambiguous	preferred	600.0	30.0		31.93404480011668	0.03337419999297708
1	27.921285800053738	stim	508		2	ambiguous	ambiguous	preferred	600.0	30.0		31.967419000109658	0.03331119997892529
1	27.954597000032663	stim	509		2	ambiguous	ambiguous	preferred	600.0	30.0		32.00073020008858	0.03341549995820969
1	27.988012499990873	stim	510		2	ambiguous	ambiguous	preferred	600.0	30.0		32.03414570004679	0.033643700066022575
1	28.021656200056896	stim	511		2	ambiguous	ambiguous	preferred	600.0	30.0		32.067789400112815	0.0331111999694258
1	28.05476740002632	stim	512		2	ambiguous	ambiguous	preferred	600.0	30.0		32.10090060008224	0.03328979993239045
1	28.088057199958712	stim	513		2	ambiguous	ambiguous	preferred	600.0	30.0		32.13419040001463	0.03326050005853176
1	28.121317700017244	stim	514		2	ambiguous	ambiguous	preferred	600.0	30.0		32.16745090007316	0.03351139998994768
1	28.15482910000719	stim	515		2	ambiguous	ambiguous	preferred	600.0	30.0		32.20096230006311	0.033145599998533726
1	28.187974700005725	stim	516		2	ambiguous	ambiguous	preferred	600.0	30.0		32.234107900061645	0.03376909997314215
1	28.221743799978867	stim	517		2	ambiguous	ambiguous	preferred	600.0	30.0		32.26787700003479	0.0332744000479579
1	28.255018200026825	stim	518		2	ambiguous	ambiguous	preferred	600.0	30.0		32.301151400082745	0.03464880003593862
1	28.289667000062764	stim	519		2	ambiguous	ambiguous	preferred	600.0	30.0		32.33580020011868	0.03189559991005808
1	28.32156259997282	stim	520		2	ambiguous	ambiguous	preferred	600.0	30.0		32.36769580002874	0.03324000001884997
1	28.35480259999167	stim	521		2	ambiguous	ambiguous	preferred	600.0	30.0		32.40093580004759	0.03341190004721284
1	28.388214500038885	stim	522		2	ambiguous	ambiguous	preferred	600.0	30.0		32.434347700094804	0.033662599977105856
1	28.42187710001599	stim	523		2	ambiguous	ambiguous	preferred	600.0	30.0		32.46801030007191	0.03367379994597286
1	28.455550899961963	stim	524		2	ambiguous	ambiguous	preferred	600.0	30.0		32.50168410001788	0.03321010002400726
1	28.48876099998597	stim	525		2	ambiguous	ambiguous	preferred	600.0	30.0		32.53489420004189	0.033079100074246526
1	28.521840100060217	stim	526		2	ambiguous	ambiguous	preferred	600.0	30.0		32.56797330011614	0.033320299931801856
1	28.55516039999202	stim	527		2	ambiguous	ambiguous	preferred	600.0	30.0		32.60129360004794	0.03334249998442829
1	28.588502899976447	stim	528		2	ambiguous	ambiguous	preferred	600.0	30.0		32.63463610003237	0.03358619997743517
1	28.622089099953882	stim	529		2	ambiguous	ambiguous	preferred	600.0	30.0		32.6682223000098	0.03401030006352812
1	28.65609940001741	stim	530		2	ambiguous	ambiguous	preferred	600.0	30.0		32.70223260007333	0.03286469995509833
1	28.68896409997251	stim	531		2	ambiguous	ambiguous	preferred	600.0	30.0		32.73509730002843	0.03404860000591725
1	28.723012699978426	stim	532		2	ambiguous	ambiguous	preferred	600.0	30.0		32.769145900034346	0.03250670002307743
1	28.755519400001504	stim	533		2	ambiguous	ambiguous	preferred	600.0	30.0		32.80165260005742	0.03375860000960529
1	28.78927800001111	stim	534		2	ambiguous	ambiguous	preferred	600.0	30.0		32.83541120006703	0.03338599996641278
1	28.82266399997752	stim	535		2	ambiguous	ambiguous	preferred	600.0	30.0		32.86879720003344	0.034173300024122
1	28.856837300001644	stim	536		2	ambiguous	ambiguous	preferred	600.0	30.0		32.90297050005756	0.033034499967470765
1	28.889871799969114	stim	537		2	ambiguous	ambiguous	preferred	600.0	30.0		32.936005000025034	0.03336170001421124
1	28.923233499983326	stim	538		2	ambiguous	ambiguous	preferred	600.0	30.0		32.969366700039245	0.033243400044739246
1	28.956476900028065	stim	539		2	ambiguous	ambiguous	preferred	600.0	30.0		33.002610100083984	0.03336450003553182
1	28.989841400063597	stim	540		2	ambiguous	ambiguous	preferred	600.0	30.0		33.035974600119516	0.03330929996445775
1	29.023150700028054	stim	541		2	ambiguous	ambiguous	preferred	600.0	30.0		33.069283900083974	0.03366529999766499
1	29.05681600002572	stim	542		2	ambiguous	ambiguous	preferred	600.0	30.0		33.10294920008164	0.033228699932806194
1	29.090044699958526	stim	543		2	ambiguous	ambiguous	preferred	600.0	30.0		33.136177900014445	0.033294100081548095
1	29.123338800040074	stim	544		2	ambiguous	ambiguous	preferred	600.0	30.0		33.16947200009599	0.03323229996021837
1	29.156571100000292	stim	545		2	ambiguous	ambiguous	preferred	600.0	30.0		33.20270430005621	0.033403699984773993
1	29.189974799985066	stim	546		2	ambiguous	ambiguous	preferred	600.0	30.0		33.236108000040986	0.03331810003146529
1	29.22329290001653	stim	547		2	ambiguous	ambiguous	preferred	600.0	30.0		33.26942610007245	0.03341349994298071
1	29.256706399959512	stim	548		2	ambiguous	ambiguous	preferred	600.0	30.0		33.30283960001543	0.03437010000925511
1	29.291076499968767	stim	549		2	ambiguous	ambiguous	preferred	600.0	30.0		33.33720970002469	0.03226670005824417
1	29.32334320002701	stim	550		2	ambiguous	ambiguous	preferred	600.0	30.0		33.36947640008293	0.03329179994761944
1	29.35663499997463	stim	551		2	ambiguous	ambiguous	preferred	600.0	30.0		33.40276820003055	0.03330050001386553
1	29.389935499988496	stim	552		2	ambiguous	ambiguous	preferred	600.0	30.0		33.436068700044416	0.033383100060746074
1	29.423318600049242	stim	553		2	ambiguous	ambiguous	preferred	600.0	30.0		33.46945180010516	0.03331089997664094
1	29.456629500025883	stim	554		2	ambiguous	ambiguous	preferred	600.0	30.0		33.5027627000818	0.033801999990828335
1	29.49043150001671	stim	555		2	ambiguous	ambiguous	preferred	600.0	30.0		33.53656470007263	0.03331740002613515
1	29.523748900042847	stim	556		2	ambiguous	ambiguous	preferred	600.0	30.0		33.569882100098766	0.03336589992977679
1	29.557114799972624	stim	557		2	ambiguous	ambiguous	preferred	600.0	30.0		33.60324800002854	0.03337150008883327
1	29.590486300061457	stim	558		2	ambiguous	ambiguous	preferred	600.0	30.0		33.636619500117376	0.033210599911399186
1	29.623696899972856	stim	559		2	ambiguous	ambiguous	preferred	600.0	30.0		33.669830100028776	0.03334550000727177
1	29.657042399980128	stim	560		2	ambiguous	ambiguous	preferred	600.0	30.0		33.70317560003605	0.033573799999430776
1	29.69061619997956	stim	561		2	ambiguous	ambiguous	preferred	600.0	30.0		33.73674940003548	0.03355699998792261
1	29.72417319996748	stim	562		2	ambiguous	ambiguous	preferred	600.0	30.0		33.7703064000234	0.03304570005275309
1	29.757218900020234	stim	563		2	ambiguous	ambiguous	preferred	600.0	30.0		33.803352100076154	0.03326759999617934
1	29.790486500016414	stim	564		2	ambiguous	ambiguous	preferred	600.0	30.0		33.83661970007233	0.03350929997395724
1	29.82399579999037	stim	565		2	ambiguous	ambiguous	preferred	600.0	30.0		33.87012900004629	0.03334610001184046
1	29.85734190000221	stim	566		2	ambiguous	ambiguous	preferred	600.0	30.0		33.90347510005813	0.03383590001612902
1	29.89117780001834	stim	567		2	ambiguous	ambiguous	preferred	600.0	30.0		33.93731100007426	0.03420280001591891
1	29.92538060003426	stim	568		2	ambiguous	ambiguous	preferred	600.0	30.0		33.97151380009018	0.03227840003091842
1	29.957659000065178	stim	569		2	ambiguous	ambiguous	preferred	600.0	30.0		34.0037922001211	0.03330069989897311
1	29.99095969996415	stim	570		2	ambiguous	ambiguous	preferred	600.0	30.0		34.03709290002007	0.033077900065109134
1	30.02403760002926	stim	571		2	ambiguous	ambiguous	preferred	600.0	30.0		34.07017080008518	0.03329920000396669
1	30.057336800033227	stim	572		2	ambiguous	ambiguous	preferred	600.0	30.0		34.103470000089146	0.03364909999072552
1	30.090985900023952	stim	573		2	ambiguous	ambiguous	preferred	600.0	30.0		34.13711910007987	0.033695299993269145
1	30.12468120001722	stim	574		2	ambiguous	ambiguous	preferred	600.0	30.0		34.17081440007314	0.03314770001452416
1	30.157828900031745	stim	575		2	ambiguous	ambiguous	preferred	600.0	30.0		34.203962100087665	0.033268600003793836
1	30.19109750003554	stim	576		2	ambiguous	ambiguous	preferred	600.0	30.0		34.23723070009146	0.0332589999306947
1	30.224356499966234	stim	577		2	ambiguous	ambiguous	preferred	600.0	30.0		34.270489700022154	0.033621400012634695
1	30.25797789997887	stim	578		2	ambiguous	ambiguous	preferred	600.0	30.0		34.30411110003479	0.03335669997613877
1	30.291334599955007	stim	579		2	ambiguous	ambiguous	preferred	600.0	30.0		34.33746780001093	0.033608200028538704
1	30.324942799983546	stim	580		2	ambiguous	ambiguous	preferred	600.0	30.0		34.371076000039466	0.03333490004297346
1	30.35827770002652	stim	581		2	ambiguous	ambiguous	preferred	600.0	30.0		34.40441090008244	0.033203299972228706
1	30.39148099999875	stim	582		2	ambiguous	ambiguous	preferred	600.0	30.0		34.43761420005467	0.03323509998153895
1	30.424716099980287	stim	583		2	ambiguous	ambiguous	preferred	600.0	30.0		34.47084930003621	0.0332975999917835
1	30.45801369997207	stim	584		2	ambiguous	ambiguous	preferred	600.0	30.0		34.50414690002799	0.03331490000709891
1	30.49132859997917	stim	585		2	ambiguous	ambiguous	preferred	600.0	30.0		34.53746180003509	0.03334070008713752
1	30.524669300066307	stim	586		2	ambiguous	ambiguous	preferred	600.0	30.0		34.57080250012223	0.03370989998802543
1	30.558379200054333	stim	587		2	ambiguous	ambiguous	preferred	600.0	30.0		34.60451240011025	0.03307679994031787
1	30.59145599999465	stim	588		2	ambiguous	ambiguous	preferred	600.0	30.0		34.63758920005057	0.033288100035861135
1	30.62474410003051	stim	589		2	ambiguous	ambiguous	preferred	600.0	30.0		34.67087730008643	0.03322470001876354
1	30.657968800049275	stim	590		2	ambiguous	ambiguous	preferred	600.0	30.0		34.704102000105195	0.0336681999033317
1	30.691636999952607	stim	591		2	ambiguous	ambiguous	preferred	600.0	30.0		34.737770200008526	0.033600700087845325
1	30.725237700040452	stim	592		2	ambiguous	ambiguous	preferred	600.0	30.0		34.77137090009637	0.03387049993034452
1	30.759108199970797	stim	593		2	ambiguous	ambiguous	preferred	600.0	30.0		34.805241400026716	0.03288700000848621
1	30.791995199979283	stim	594		2	ambiguous	ambiguous	preferred	600.0	30.0		34.8381284000352	0.03337439999449998
1	30.825369599973783	stim	595		2	ambiguous	ambiguous	preferred	600.0	30.0		34.8715028000297	0.03341320005711168
1	30.858782800030895	stim	596		2	ambiguous	ambiguous	preferred	600.0	30.0		34.904916000086814	0.03393889998551458
1	30.89272170001641	stim	597		2	ambiguous	ambiguous	preferred	600.0	30.0		34.93885490007233	0.033279099967330694
1	30.92600079998374	stim	598		2	ambiguous	ambiguous	preferred	600.0	30.0		34.97213400003966	0.03422180004417896
1	30.96022260002792	stim	599		2	ambiguous	ambiguous	preferred	600.0	30.0		35.00635580008384	0.033024100004695356
0	30.993246700032614	stim	0		50	break	break	preferred	1.0	0.0		35.039379900088534	0.9357477999292314
