trial_nr	onset	event_type	phase	response	nr_frames	block_type	trial_type	response_hand	phase_length	last_frame	key_duration	onset_abs	duration
0	0.01209900004323572	stim	0		0	break	break	preferred	1.0	0.0		4.596721400041133	3.0676976999966428
0	3.0797967000398785	break	0	space	0	break	break	preferred	1.0	0.0	0.08463119994848967	7.664419100037776	0.3524107999401167
0	3.432207499979995	break	0	space	599	break	break	preferred	1.0	0.0	0.10131920001003891	8.016829899977893	6.6551408000523224
1	10.087348300032318	stim	0		2	unambiguous	left	preferred	69.0	0.0		14.671970700030215	0.03206729993689805
1	10.119415599969216	stim	1		2	unambiguous	left	preferred	69.0	0.0		14.704037999967113	0.034497100044973195
1	10.153912700014189	stim	2		2	unambiguous	left	preferred	69.0	0.0		14.738535100012086	0.03367729997262359
1	10.187589999986812	stim	3		2	unambiguous	left	preferred	69.0	0.0		14.77221239998471	0.033150400035083294
1	10.220740400021896	stim	4		2	unambiguous	left	preferred	69.0	0.0		14.805362800019793	0.03373339993413538
1	10.254473799956031	stim	5		2	unambiguous	left	preferred	69.0	0.0		14.839096199953929	0.032853999990038574
1	10.28732779994607	stim	6		2	unambiguous	left	preferred	69.0	0.0		14.871950199943967	0.03324150003027171
1	10.320569299976341	stim	7		2	unambiguous	left	preferred	69.0	0.0		14.905191699974239	0.033424100023694336
1	10.353993400000036	stim	8		2	unambiguous	left	preferred	69.0	0.0		14.938615799997933	0.03324969997629523
1	10.387243099976331	stim	9		2	unambiguous	left	preferred	69.0	0.0		14.971865499974228	0.03259499999694526
1	10.419838099973276	stim	10		2	unambiguous	left	preferred	69.0	0.0		15.004460499971174	0.034374200040474534
1	10.45421230001375	stim	11		2	unambiguous	left	preferred	69.0	0.0		15.038834700011648	0.03321040002629161
1	10.487422700040042	stim	12		2	unambiguous	left	preferred	69.0	0.0		15.07204510003794	0.03324829996563494
1	10.520671000005677	stim	13		2	unambiguous	left	preferred	69.0	0.0		15.105293400003575	0.03324300004169345
1	10.55391400004737	stim	14		2	unambiguous	left	preferred	69.0	0.0		15.138536400045268	0.03322919993661344
1	10.587143199983984	stim	15		2	unambiguous	left	preferred	69.0	0.0		15.171765599981882	0.03367969999089837
1	10.620822899974883	stim	16		2	unambiguous	left	preferred	69.0	0.0		15.20544529997278	0.033622700022533536
1	10.654445599997416	stim	17		2	unambiguous	left	preferred	69.0	0.0		15.239067999995314	0.034655299969017506
1	10.689100899966434	stim	18		2	unambiguous	left	preferred	69.0	0.0		15.273723299964331	0.03154450003057718
1	10.72064539999701	stim	19		2	unambiguous	left	preferred	69.0	0.0		15.305267799994908	0.03330520004965365
1	10.753950600046664	stim	20		2	unambiguous	left	preferred	69.0	0.0		15.338573000044562	0.03323269996326417
1	10.787183300009929	stim	21		2	unambiguous	left	preferred	69.0	0.0		15.371805700007826	0.03341559995897114
1	10.8205988999689	stim	22		2	unambiguous	left	preferred	69.0	0.0		15.405221299966797	0.0338503000093624
1	10.854449199978262	stim	23		2	unambiguous	left	preferred	69.0	0.0		15.43907159997616	0.032973599969409406
1	10.887422799947672	stim	24		2	unambiguous	left	preferred	69.0	0.0		15.472045199945569	0.03328050009440631
1	10.920703300042078	stim	25		2	unambiguous	left	preferred	69.0	0.0		15.505325700039975	0.03324979997705668
1	10.953953100019135	stim	26		2	unambiguous	left	preferred	69.0	0.0		15.538575500017032	0.03268709999974817
1	10.986640200018883	stim	27		2	unambiguous	left	preferred	69.0	0.0		15.57126260001678	0.03389039996545762
1	11.02053059998434	stim	28		2	unambiguous	left	preferred	69.0	0.0		15.605152999982238	0.03365950006991625
1	11.054190100054257	stim	29		2	unambiguous	left	preferred	69.0	0.0		15.638812500052154	0.03381709998939186
1	11.088007200043648	stim	30		2	unambiguous	left	preferred	69.0	0.0		15.672629600041546	0.033047699951566756
1	11.121054899995215	stim	31		2	unambiguous	left	preferred	69.0	0.0		15.705677299993113	0.03307390003465116
1	11.154128800029866	stim	32		2	unambiguous	left	preferred	69.0	0.0		15.738751200027764	0.03317009995225817
1	11.187298899982125	stim	33		2	unambiguous	left	preferred	69.0	0.0		15.771921299980022	0.03322350000962615
1	11.22052239999175	stim	34		2	unambiguous	left	preferred	69.0	0.0		15.805144799989648	0.03343569999560714
1	11.253958099987358	stim	35		2	unambiguous	left	preferred	69.0	0.0		15.838580499985255	0.03362200001720339
1	11.287580100004561	stim	36		2	unambiguous	left	preferred	69.0	0.0		15.872202500002459	0.033197500044479966
1	11.320777600049041	stim	37		2	unambiguous	left	preferred	69.0	0.0		15.905400000046939	0.0332668999908492
1	11.35404450003989	stim	38		2	unambiguous	left	preferred	69.0	0.0		15.938666900037788	0.03337049996480346
1	11.387415000004694	stim	39		2	unambiguous	left	preferred	69.0	0.0		15.972037400002591	0.033605100004933774
1	11.421020100009628	stim	40		2	unambiguous	left	preferred	69.0	0.0		16.005642500007525	0.03331209998577833
1	11.454332199995406	stim	41		2	unambiguous	left	preferred	69.0	0.0		16.038954599993303	0.0338616999797523
1	11.488193899975158	stim	42		2	unambiguous	left	preferred	69.0	0.0		16.072816299973056	0.03322550002485514
1	11.521419400000013	stim	43		2	unambiguous	left	preferred	69.0	0.0		16.10604179999791	0.034297100035473704
1	11.555716500035487	stim	44		2	unambiguous	left	preferred	69.0	0.0		16.140338900033385	0.0323476999765262
1	11.588064200012013	stim	45		2	unambiguous	left	preferred	69.0	0.0		16.17268660000991	0.03325480001512915
1	11.621319000027142	stim	46		2	unambiguous	left	preferred	69.0	0.0		16.20594140002504	0.03336739994119853
1	11.654686399968341	stim	47		2	unambiguous	left	preferred	69.0	0.0		16.23930879996624	0.03369259997271001
1	11.688378999941051	stim	48		2	unambiguous	left	preferred	69.0	0.0		16.27300139993895	0.0333173000253737
1	11.721696299966425	stim	49		2	unambiguous	left	preferred	69.0	0.0		16.306318699964322	0.033252199995331466
1	11.754948499961756	stim	50		2	unambiguous	left	preferred	69.0	0.0		16.339570899959654	0.03337459999602288
1	11.788323099957779	stim	51		2	unambiguous	left	preferred	69.0	0.0		16.372945499955676	0.03336420003324747
1	11.821687299991027	stim	52		2	unambiguous	left	preferred	69.0	0.0		16.406309699988924	0.033569199964404106
1	11.85525649995543	stim	53		2	unambiguous	left	preferred	69.0	0.0		16.439878899953328	0.03362050000578165
1	11.888876999961212	stim	54		2	unambiguous	left	preferred	69.0	0.0		16.47349939995911	0.03358170005958527
1	11.922458700020798	stim	55		2	unambiguous	left	preferred	69.0	0.0		16.507081100018695	0.03315489995293319
1	11.95561359997373	stim	56		2	unambiguous	left	preferred	69.0	0.0		16.540235999971628	0.0333677000598982
1	11.988981300033629	stim	57		2	unambiguous	left	preferred	69.0	0.0		16.573603700031526	0.03342889994382858
1	12.022410199977458	stim	58		2	unambiguous	left	preferred	69.0	0.0		16.607032599975355	0.03331520000938326
1	12.05572539998684	stim	59		2	unambiguous	left	preferred	69.0	0.0		16.64034779998474	0.03343850001692772
1	12.089163900003769	stim	60		2	unambiguous	left	preferred	69.0	0.0		16.673786300001666	0.03444840002339333
1	12.123612300027162	stim	61		2	unambiguous	left	preferred	69.0	0.0		16.70823470002506	0.03264310001395643
1	12.156255400041118	stim	62		2	unambiguous	left	preferred	69.0	0.0		16.740877800039016	0.03327379992697388
1	12.189529199968092	stim	63		2	unambiguous	left	preferred	69.0	0.0		16.77415159996599	0.033296799985691905
1	12.222825999953784	stim	64		2	unambiguous	left	preferred	69.0	0.0		16.80744839995168	0.033339900081045926
1	12.25616590003483	stim	65		2	unambiguous	left	preferred	69.0	0.0		16.840788300032727	0.03360409999731928
1	12.28977000003215	stim	66		2	unambiguous	left	preferred	69.0	0.0		16.874392400030047	0.034578499966301024
1	12.32434849999845	stim	67		2	unambiguous	left	preferred	69.0	0.0		16.908970899996348	0.03243140003178269
1	12.356779900030233	stim	68		2	unambiguous	left	preferred	69.0	0.0		16.94140230002813	0.03325209999457002
2	12.390032000024803	stim	0		2	unambiguous	left	preferred	71.0	69.0		16.9746544000227	0.033296899986453354
2	12.423328900011256	stim	1		2	unambiguous	left	preferred	71.0	69.0		17.007951300009154	0.03331339999567717
2	12.456642300006934	stim	2		2	unambiguous	left	preferred	71.0	69.0		17.04126470000483	0.03336560004390776
2	12.490007900050841	stim	3		2	unambiguous	left	preferred	71.0	69.0		17.07463030004874	0.03413609997369349
2	12.524144000024535	stim	4		2	unambiguous	left	preferred	71.0	69.0		17.108766400022432	0.033419999992474914
2	12.55756400001701	stim	5		2	unambiguous	left	preferred	71.0	69.0		17.142186400014907	0.032936700037680566
2	12.59050070005469	stim	6		2	unambiguous	left	preferred	71.0	69.0		17.175123100052588	0.03330349992029369
2	12.623804199974984	stim	7		2	unambiguous	left	preferred	71.0	69.0		17.20842659997288	0.0333288999972865
2	12.65713309997227	stim	8		2	unambiguous	left	preferred	71.0	69.0		17.241755499970168	0.03330500004813075
2	12.690438100020401	stim	9		2	unambiguous	left	preferred	71.0	69.0		17.2750605000183	0.03408689994830638
2	12.724524999968708	stim	10		2	unambiguous	left	preferred	71.0	69.0		17.309147399966605	0.03329749999102205
2	12.75782249995973	stim	11		2	unambiguous	left	preferred	71.0	69.0		17.342444899957627	0.033252399996854365
2	12.791074899956584	stim	12		2	unambiguous	left	preferred	71.0	69.0		17.37569729995448	0.03316580003593117
2	12.824240699992515	stim	13		2	unambiguous	left	preferred	71.0	69.0		17.408863099990413	0.033487900043837726
2	12.857728600036353	stim	14		2	unambiguous	left	preferred	71.0	69.0		17.44235100003425	0.033424099907279015
2	12.891152699943632	stim	15		2	unambiguous	left	preferred	71.0	69.0		17.47577509994153	0.03347440005745739
2	12.92462710000109	stim	16		2	unambiguous	left	preferred	71.0	69.0		17.509249499998987	0.03353779995813966
2	12.958164899959229	stim	17		2	unambiguous	left	preferred	71.0	69.0		17.542787299957126	0.03325770003721118
2	12.99142259999644	stim	18		2	unambiguous	left	preferred	71.0	69.0		17.576044999994338	0.03324689995497465
2	13.024669499951415	stim	19		2	unambiguous	left	preferred	71.0	69.0		17.609291899949312	0.03321280004456639
2	13.057882299995981	stim	20		2	unambiguous	left	preferred	71.0	69.0		17.64250469999388	0.03344340005423874
2	13.09132570005022	stim	21		2	unambiguous	left	preferred	71.0	69.0		17.675948100048117	0.03329599997960031
2	13.12462170002982	stim	22		2	unambiguous	left	preferred	71.0	69.0		17.709244100027718	0.03385609993711114
2	13.158477799966931	stim	23		2	unambiguous	left	preferred	71.0	69.0		17.74310019996483	0.03299249999690801
2	13.19147029996384	stim	24		2	unambiguous	left	preferred	71.0	69.0		17.776092699961737	0.03329709998797625
2	13.224767399951816	stim	25		2	unambiguous	left	preferred	71.0	69.0		17.809389799949713	0.03332190006040037
2	13.258089300012216	stim	26		2	unambiguous	left	preferred	71.0	69.0		17.842711700010113	0.033252199995331466
2	13.291341500007547	stim	27		2	unambiguous	left	preferred	71.0	69.0		17.875963900005445	0.03347939997911453
2	13.324820899986662	stim	28		2	unambiguous	left	preferred	71.0	69.0		17.90944329998456	0.03385480004362762
2	13.35867570003029	stim	29		2	unambiguous	left	preferred	71.0	69.0		17.943298100028187	0.0333642999175936
2	13.392039999947883	stim	30		2	unambiguous	left	preferred	71.0	69.0		17.97666239994578	0.03331359999720007
2	13.425353599945083	stim	31		2	unambiguous	left	preferred	71.0	69.0		18.00997599994298	0.03329740010667592
2	13.45865100005176	stim	32		2	unambiguous	left	preferred	71.0	69.0		18.043273400049657	0.03325310000218451
2	13.491904100053944	stim	33		2	unambiguous	left	preferred	71.0	69.0		18.07652650005184	0.03337739990092814
2	13.525281499954872	stim	34		2	unambiguous	left	preferred	71.0	69.0		18.10990389995277	0.033601000090129673
2	13.558882500045002	stim	35		2	unambiguous	left	preferred	71.0	69.0		18.1435049000429	0.03355489997193217
2	13.592437400016934	stim	36		2	unambiguous	left	preferred	71.0	69.0		18.17705980001483	0.03319400001782924
2	13.625631400034763	stim	37		2	unambiguous	left	preferred	71.0	69.0		18.21025380003266	0.03335499996319413
2	13.658986399997957	stim	38		2	unambiguous	left	preferred	71.0	69.0		18.243608799995854	0.03326209995429963
2	13.692248499952257	stim	39		2	unambiguous	left	preferred	71.0	69.0		18.276870899950154	0.0333248000824824
2	13.725573300034739	stim	40		2	unambiguous	left	preferred	71.0	69.0		18.310195700032637	0.03349750000052154
2	13.75907080003526	stim	41		2	unambiguous	left	preferred	71.0	69.0		18.343693200033158	0.03397619992028922
2	13.79304699995555	stim	42		2	unambiguous	left	preferred	71.0	69.0		18.377669399953447	0.03275980008766055
2	13.82580680004321	stim	43		2	unambiguous	left	preferred	71.0	69.0		18.410429200041108	0.03330349992029369
2	13.859110299963504	stim	44		2	unambiguous	left	preferred	71.0	69.0		18.4437326999614	0.0332929000724107
2	13.892403200035915	stim	45		2	unambiguous	left	preferred	71.0	69.0		18.477025600033812	0.03324869996868074
2	13.925651900004596	stim	46		2	unambiguous	left	preferred	71.0	69.0		18.510274300002493	0.03334480000194162
2	13.958996700006537	stim	47		2	unambiguous	left	preferred	71.0	69.0		18.543619100004435	0.03369790001306683
2	13.992694600019604	stim	48		2	unambiguous	left	preferred	71.0	69.0		18.5773170000175	0.03311880002729595
2	14.0258134000469	stim	49		2	unambiguous	left	preferred	71.0	69.0		18.610435800044797	0.033290699939243495
2	14.059104099986143	stim	50		2	unambiguous	left	preferred	71.0	69.0		18.64372649998404	0.03329309995751828
2	14.092397199943662	stim	51		2	unambiguous	left	preferred	71.0	69.0		18.67701959994156	0.03328299999702722
2	14.125680199940689	stim	52		2	unambiguous	left	preferred	71.0	69.0		18.710302599938586	0.03351710003335029
2	14.15919729997404	stim	53		2	unambiguous	left	preferred	71.0	69.0		18.743819699971937	0.033608000027015805
2	14.192805300001055	stim	54		2	unambiguous	left	preferred	71.0	69.0		18.777427699998952	0.0336327999830246
2	14.22643809998408	stim	55		2	unambiguous	left	preferred	71.0	69.0		18.811060499981977	0.033027400029823184
2	14.259465500013903	stim	56		2	unambiguous	left	preferred	71.0	69.0		18.8440879000118	0.033255500020459294
2	14.292721000034362	stim	57		2	unambiguous	left	preferred	71.0	69.0		18.87734340003226	0.03331109997816384
2	14.326032100012526	stim	58		2	unambiguous	left	preferred	71.0	69.0		18.910654500010423	0.033255500020459294
2	14.359287600032985	stim	59		2	unambiguous	left	preferred	71.0	69.0		18.943910000030883	0.03331580001395196
2	14.392603400046937	stim	60		2	unambiguous	left	preferred	71.0	69.0		18.977225800044835	0.03415429999586195
2	14.4267577000428	stim	61		2	unambiguous	left	preferred	71.0	69.0		19.011380100040697	0.03285989991854876
2	14.459617599961348	stim	62		2	unambiguous	left	preferred	71.0	69.0		19.044239999959245	0.033162100007757545
2	14.492779699969105	stim	63		2	unambiguous	left	preferred	71.0	69.0		19.077402099967003	0.033262800076045096
2	14.52604250004515	stim	64		2	unambiguous	left	preferred	71.0	69.0		19.110664900043048	0.03325419989414513
2	14.559296699939296	stim	65		2	unambiguous	left	preferred	71.0	69.0		19.143919099937193	0.03336150001268834
2	14.592658199951984	stim	66		2	unambiguous	left	preferred	71.0	69.0		19.17728059994988	0.03357880003750324
2	14.626236999989487	stim	67		2	unambiguous	left	preferred	71.0	69.0		19.210859399987385	0.03354990005027503
2	14.659786900039762	stim	68		2	unambiguous	left	preferred	71.0	69.0		19.24440930003766	0.03298809996340424
2	14.692775000003166	stim	69		2	unambiguous	left	preferred	71.0	69.0		19.277397400001064	0.03406960004940629
2	14.726844600052573	stim	70		2	unambiguous	left	preferred	71.0	69.0		19.31146700005047	0.03302299999631941
3	14.759867600048892	stim	0		2	unambiguous	left	preferred	69.0	140.0		19.34449000004679	0.03325599990785122
3	14.793123599956743	stim	1		2	unambiguous	left	preferred	69.0	140.0		19.37774599995464	0.03351820004172623
3	14.82664179999847	stim	2		2	unambiguous	left	preferred	69.0	140.0		19.411264199996367	0.034191700047813356
3	14.860833500046283	stim	3		2	unambiguous	left	preferred	69.0	140.0		19.44545590004418	0.049063899903558195
3	14.909897399949841	stim	4		2	unambiguous	left	preferred	69.0	140.0		19.49451979994774	0.033366500050760806
3	14.943263900000602	stim	5		2	unambiguous	left	preferred	69.0	140.0		19.5278862999985	0.03335689997766167
3	14.976620799978264	stim	6		2	unambiguous	left	preferred	69.0	140.0		19.56124319997616	0.03330070001538843
3	15.009921499993652	stim	7		2	unambiguous	left	preferred	69.0	140.0		19.59454389999155	0.03392249997705221
3	15.043843999970704	stim	8		2	unambiguous	left	preferred	69.0	140.0		19.6284663999686	0.033677499974146485
3	15.07752149994485	stim	9		2	unambiguous	left	preferred	69.0	140.0		19.66214389994275	0.03292560006957501
3	15.110447100014426	stim	10		2	unambiguous	left	preferred	69.0	140.0		19.695069500012323	0.033334999927319586
3	15.143782099941745	stim	11		2	unambiguous	left	preferred	69.0	140.0		19.728404499939643	0.03360990004148334
3	15.177391999983229	stim	12		2	unambiguous	left	preferred	69.0	140.0		19.762014399981126	0.03326659998856485
3	15.210658599971794	stim	13		2	unambiguous	left	preferred	69.0	140.0		19.79528099996969	0.033565100049600005
3	15.244223700021394	stim	14		2	unambiguous	left	preferred	69.0	140.0		19.82884610001929	0.03395219997037202
3	15.278175899991766	stim	15		2	unambiguous	left	preferred	69.0	140.0		19.862798299989663	0.03273750003427267
3	15.310913400026038	stim	16		2	unambiguous	left	preferred	69.0	140.0		19.895535800023936	0.033275899942964315
3	15.344189299969003	stim	17		2	unambiguous	left	preferred	69.0	140.0		19.9288116999669	0.03348880005069077
3	15.377678100019693	stim	18		2	unambiguous	left	preferred	69.0	140.0		19.96230050001759	0.033272899920120835
3	15.410950999939814	stim	19		2	unambiguous	left	preferred	69.0	140.0		19.99557339993771	0.033264500088989735
3	15.444215500028804	stim	20		2	unambiguous	left	preferred	69.0	140.0		20.0288379000267	0.0338541999226436
3	15.478069699951448	stim	21		2	unambiguous	left	preferred	69.0	140.0		20.062692099949345	0.033058500033803284
3	15.51112819998525	stim	22		2	unambiguous	left	preferred	69.0	140.0		20.09575059998315	0.03321010002400726
3	15.544338300009258	stim	23		2	unambiguous	left	preferred	69.0	140.0		20.128960700007156	0.03334950003772974
3	15.577687800046988	stim	24		2	unambiguous	left	preferred	69.0	140.0		20.162310200044885	0.03376139991451055
3	15.611449199961498	stim	25		2	unambiguous	left	preferred	69.0	140.0		20.196071599959396	0.03334610001184046
3	15.644795299973339	stim	26		2	unambiguous	left	preferred	69.0	140.0		20.229417699971236	0.03395269997417927
3	15.678747999947518	stim	27		2	unambiguous	left	preferred	69.0	140.0		20.263370399945416	0.03312630008440465
3	15.711874300031923	stim	28		2	unambiguous	left	preferred	69.0	140.0		20.29649670002982	0.03327060001902282
3	15.745144900050946	stim	29		2	unambiguous	left	preferred	69.0	140.0		20.329767300048843	0.03333289991132915
3	15.778477799962275	stim	30		2	unambiguous	left	preferred	69.0	140.0		20.363100199960172	0.033298099995590746
3	15.811775899957865	stim	31		2	unambiguous	left	preferred	69.0	140.0		20.396398299955763	0.033301500021480024
3	15.845077399979346	stim	32		2	unambiguous	left	preferred	69.0	140.0		20.429699799977243	0.03351690003182739
3	15.878594300011173	stim	33		2	unambiguous	left	preferred	69.0	140.0		20.46321670000907	0.033286400022916496
3	15.91188070003409	stim	34		2	unambiguous	left	preferred	69.0	140.0		20.496503100031987	0.033351499936543405
3	15.945232199970633	stim	35		2	unambiguous	left	preferred	69.0	140.0		20.52985459996853	0.03336420003324747
3	15.97859640000388	stim	36		2	unambiguous	left	preferred	69.0	140.0		20.563218800001778	0.033509999979287386
3	16.012106399983168	stim	37		2	unambiguous	left	preferred	69.0	140.0		20.596728799981065	0.033375400002114475
3	16.045481799985282	stim	38		2	unambiguous	left	preferred	69.0	140.0		20.63010419998318	0.03338989999610931
3	16.07887169998139	stim	39		2	unambiguous	left	preferred	69.0	140.0		20.66349409997929	0.034614000003784895
3	16.113485699985176	stim	40		2	unambiguous	left	preferred	69.0	140.0		20.698108099983074	0.032584100030362606
3	16.14606980001554	stim	41		2	unambiguous	left	preferred	69.0	140.0		20.730692200013436	0.03331500000786036
3	16.1793848000234	stim	42		2	unambiguous	left	preferred	69.0	140.0		20.764007200021297	0.03364699997473508
3	16.213031799998134	stim	43		2	unambiguous	left	preferred	69.0	140.0		20.797654199996032	0.03361719998065382
3	16.246648999978788	stim	44		2	unambiguous	left	preferred	69.0	140.0		20.831271399976686	0.03347869997378439
3	16.280127699952573	stim	45		2	unambiguous	left	preferred	69.0	140.0		20.86475009995047	0.03427669999655336
3	16.314404399949126	stim	46		2	unambiguous	left	preferred	69.0	140.0		20.899026799947023	0.03308399999514222
3	16.347488399944268	stim	47		2	unambiguous	left	preferred	69.0	140.0		20.932110799942166	0.033305800054222345
3	16.38079419999849	stim	48		2	unambiguous	left	preferred	69.0	140.0		20.965416599996388	0.03354400000534952
3	16.41433820000384	stim	49		2	unambiguous	left	preferred	69.0	140.0		20.998960600001737	0.03337640000972897
3	16.44771460001357	stim	50		2	unambiguous	left	preferred	69.0	140.0		21.032337000011466	0.03327220003120601
3	16.480986800044775	stim	51		2	unambiguous	left	preferred	69.0	140.0		21.065609200042672	0.03496630000881851
3	16.515953100053594	stim	52		2	unambiguous	left	preferred	69.0	140.0		21.10057550005149	0.03238739992957562
3	16.54834049998317	stim	53		2	unambiguous	left	preferred	69.0	140.0		21.132962899981067	0.033443500055000186
3	16.58178400003817	stim	54		2	unambiguous	left	preferred	69.0	140.0		21.166406400036067	0.03376549994572997
3	16.6155494999839	stim	55		2	unambiguous	left	preferred	69.0	140.0		21.200171899981797	0.033461099956184626
3	16.649010599940084	stim	56		2	unambiguous	left	preferred	69.0	140.0		21.23363299993798	0.033023100113496184
3	16.68203370005358	stim	57		2	unambiguous	left	preferred	69.0	140.0		21.266656100051478	0.0387709999922663
3	16.720804700045846	stim	58		2	unambiguous	left	preferred	69.0	140.0		21.305427100043744	0.028554499964229763
3	16.749359200010076	stim	59		2	unambiguous	left	preferred	69.0	140.0		21.333981600007974	0.033193100010976195
3	16.782552300021052	stim	60		2	unambiguous	left	preferred	69.0	140.0		21.36717470001895	0.03337019996251911
3	16.81592249998357	stim	61		2	unambiguous	left	preferred	69.0	140.0		21.40054489998147	0.033711700001731515
3	16.849634199985303	stim	62		2	unambiguous	left	preferred	69.0	140.0		21.4342565999832	0.033218299970030785
3	16.882852499955334	stim	63		2	unambiguous	left	preferred	69.0	140.0		21.46747489995323	0.033773800008930266
3	16.916626299964264	stim	64		2	unambiguous	left	preferred	69.0	140.0		21.50124869996216	0.033016900066286325
3	16.94964320003055	stim	65		2	unambiguous	left	preferred	69.0	140.0		21.534265600028448	0.03345879993867129
3	16.98310199996922	stim	66		2	unambiguous	left	preferred	69.0	140.0		21.56772439996712	0.0333553000818938
3	17.016457300051115	stim	67		2	unambiguous	left	preferred	69.0	140.0		21.601079700049013	0.03351799992378801
3	17.049975299974903	stim	68		2	unambiguous	left	preferred	69.0	140.0		21.6345976999728	0.033243800047785044
4	17.08321910002269	stim	0		2	unambiguous	left	preferred	69.0	19.0		21.667841500020586	0.03520739998202771
4	17.118426500004716	stim	1		2	unambiguous	left	preferred	69.0	19.0		21.703048900002614	0.03501190000679344
4	17.15343840001151	stim	2		2	unambiguous	left	preferred	69.0	19.0		21.738060800009407	0.03358829999342561
4	17.187026700004935	stim	3		2	unambiguous	left	preferred	69.0	19.0		21.771649100002833	0.03319570003077388
4	17.22022240003571	stim	4		2	unambiguous	left	preferred	69.0	19.0		21.804844800033607	0.033256499911658466
4	17.253478899947368	stim	5		2	unambiguous	left	preferred	69.0	19.0		21.838101299945265	0.03395120007917285
4	17.28743010002654	stim	6		2	unambiguous	left	preferred	69.0	19.0		21.872052500024438	0.03319139999803156
4	17.320621500024572	stim	7		2	unambiguous	left	preferred	69.0	19.0		21.90524390002247	0.0349362000124529
4	17.355557700037025	stim	8		2	unambiguous	left	preferred	69.0	19.0		21.940180100034922	0.0315223999787122
4	17.387080100015737	stim	9		2	unambiguous	left	preferred	69.0	19.0		21.971702500013635	0.03350319992750883
4	17.420583299943246	stim	10		2	unambiguous	left	preferred	69.0	19.0		22.005205699941143	0.033268900006078184
4	17.453852199949324	stim	11		2	unambiguous	left	preferred	69.0	19.0		22.03847459994722	0.03347380005288869
4	17.487326000002213	stim	12		2	unambiguous	left	preferred	69.0	19.0		22.07194840000011	0.0333717999747023
4	17.520697799976915	stim	13		2	unambiguous	left	preferred	69.0	19.0		22.105320199974813	0.03396620007697493
4	17.55466400005389	stim	14		2	unambiguous	left	preferred	69.0	19.0		22.139286400051787	0.032598999910987914
4	17.587262999964878	stim	15		2	unambiguous	left	preferred	69.0	19.0		22.171885399962775	0.03321600006893277
4	17.62047900003381	stim	16		2	unambiguous	left	preferred	69.0	19.0		22.205101400031708	0.032068299944512546
4	17.652547299978323	stim	17		2	unambiguous	left	preferred	69.0	19.0		22.23716969997622	0.034458499983884394
4	17.687005799962208	stim	18		2	unambiguous	left	preferred	69.0	19.0		22.271628199960105	0.03389439999591559
4	17.720900199958123	stim	19		2	unambiguous	left	preferred	69.0	19.0		22.30552259995602	0.03294070006813854
4	17.753840900026262	stim	20		2	unambiguous	left	preferred	69.0	19.0		22.33846330002416	0.03508760000113398
4	17.788928500027396	stim	21		2	unambiguous	left	preferred	69.0	19.0		22.373550900025293	0.03155089996289462
4	17.82047939999029	stim	22		2	unambiguous	left	preferred	69.0	19.0		22.405101799988188	0.03337479999754578
4	17.853854199987836	stim	23		2	unambiguous	left	preferred	69.0	19.0		22.438476599985734	0.03366189997177571
4	17.887516099959612	stim	24		2	unambiguous	left	preferred	69.0	19.0		22.47213849995751	0.050183100043796
4	17.937699200003408	stim	25		2	unambiguous	left	preferred	69.0	19.0		22.522321600001305	0.032273099990561604
4	17.96997229999397	stim	26		2	unambiguous	left	preferred	69.0	19.0		22.554594699991867	0.0356560000218451
4	18.005628300015815	stim	27		2	unambiguous	left	preferred	69.0	19.0		22.590250700013712	0.03176499996334314
4	18.037393299979158	stim	28		2	unambiguous	left	preferred	69.0	19.0		22.622015699977055	0.03302199998870492
4	18.070415299967863	stim	29		2	unambiguous	left	preferred	69.0	19.0		22.65503769996576	0.03331500000786036
4	18.103730299975723	stim	30		2	unambiguous	left	preferred	69.0	19.0		22.68835269997362	0.05045159999281168
4	18.154181899968535	stim	31		2	unambiguous	left	preferred	69.0	19.0		22.738804299966432	0.03307830006815493
4	18.18726020003669	stim	32		2	unambiguous	left	preferred	69.0	19.0		22.771882600034587	0.03473419998772442
4	18.221994400024414	stim	33		2	unambiguous	left	preferred	69.0	19.0		22.80661680002231	0.031410599942319095
4	18.253404999966733	stim	34		2	unambiguous	left	preferred	69.0	19.0		22.83802739996463	0.033705800073221326
4	18.287110800039954	stim	35		2	unambiguous	left	preferred	69.0	19.0		22.871733200037852	0.033299900009296834
4	18.32041070004925	stim	36		2	unambiguous	left	preferred	69.0	19.0		22.90503310004715	0.033533599926158786
4	18.35394429997541	stim	37		2	unambiguous	left	preferred	69.0	19.0		22.938566699973308	0.0339745000237599
4	18.38791879999917	stim	38		2	unambiguous	left	preferred	69.0	19.0		22.972541199997067	0.03290550003293902
4	18.42082430003211	stim	39		2	unambiguous	left	preferred	69.0	19.0		23.005446700030006	0.033015199936926365
4	18.453839499969035	stim	40		2	unambiguous	left	preferred	69.0	19.0		23.038461899966933	0.03360780002549291
4	18.48744729999453	stim	41		2	unambiguous	left	preferred	69.0	19.0		23.072069699992426	0.0333484000293538
4	18.520795700023882	stim	42		2	unambiguous	left	preferred	69.0	19.0		23.10541810002178	0.0334884999319911
4	18.554284199955873	stim	43		2	unambiguous	left	preferred	69.0	19.0		23.13890659995377	0.034184399992227554
4	18.5884685999481	stim	44		2	unambiguous	left	preferred	69.0	19.0		23.173090999945998	0.03248630010057241
4	18.620954900048673	stim	45		2	unambiguous	left	preferred	69.0	19.0		23.20557730004657	0.034635999938473105
4	18.655590899987146	stim	46		2	unambiguous	left	preferred	69.0	19.0		23.240213299985044	0.03175399999599904
4	18.687344899983145	stim	47		2	unambiguous	left	preferred	69.0	19.0		23.271967299981043	0.03361060004681349
4	18.72095550002996	stim	48		2	unambiguous	left	preferred	69.0	19.0		23.305577900027856	0.03321999998297542
4	18.754175500012934	stim	49		2	unambiguous	left	preferred	69.0	19.0		23.33879790001083	0.033698600018396974
4	18.78787410003133	stim	50		2	unambiguous	left	preferred	69.0	19.0		23.37249650002923	0.03500429994892329
4	18.822878399980254	stim	51		2	unambiguous	left	preferred	69.0	19.0		23.407500799978152	0.03157900006044656
4	18.8544574000407	stim	52		2	unambiguous	left	preferred	69.0	19.0		23.4390798000386	0.03335969999898225
4	18.887817100039683	stim	53		2	unambiguous	left	preferred	69.0	19.0		23.47243950003758	0.03336839994881302
4	18.921185499988496	stim	54		2	unambiguous	left	preferred	69.0	19.0		23.505807899986394	0.033326199976727366
4	18.954511699965224	stim	55		2	unambiguous	left	preferred	69.0	19.0		23.53913409996312	0.033662699977867305
4	18.98817439994309	stim	56		2	unambiguous	left	preferred	69.0	19.0		23.57279679994099	0.03329770010896027
4	19.02147210005205	stim	57		2	unambiguous	left	preferred	69.0	19.0		23.60609450004995	0.03364739997778088
4	19.055119500029832	stim	58		2	unambiguous	left	preferred	69.0	19.0		23.63974190002773	0.032942499965429306
4	19.08806199999526	stim	59		2	unambiguous	left	preferred	69.0	19.0		23.67268439999316	0.03343489998951554
4	19.121496899984777	stim	60		2	unambiguous	left	preferred	69.0	19.0		23.706119299982674	0.03345129999797791
4	19.154948199982755	stim	61		2	unambiguous	left	preferred	69.0	19.0		23.739570599980652	0.03357650001998991
4	19.188524700002745	stim	62		2	unambiguous	left	preferred	69.0	19.0		23.773147100000642	0.03401619999203831
4	19.222540899994783	stim	63		2	unambiguous	left	preferred	69.0	19.0		23.80716329999268	0.03301999997347593
4	19.25556089996826	stim	64		2	unambiguous	left	preferred	69.0	19.0		23.840183299966156	0.03336620004847646
4	19.288927100016735	stim	65		2	unambiguous	left	preferred	69.0	19.0		23.873549500014633	0.033461199956946075
4	19.32238829997368	stim	66		2	unambiguous	left	preferred	69.0	19.0		23.90701069997158	0.033319200039841235
4	19.355707500013523	stim	67		2	unambiguous	left	preferred	69.0	19.0		23.94032990001142	0.033554699970409274
4	19.389262199983932	stim	68		2	unambiguous	left	preferred	69.0	19.0		23.97388459998183	0.03404549998231232
5	19.423307699966244	stim	0		2	unambiguous	left	preferred	69.0	88.0		24.007930099964142	0.032747199991717935
5	19.456054899957962	stim	1		2	unambiguous	left	preferred	69.0	88.0		24.04067729995586	0.033040700014680624
5	19.489095599972643	stim	2		2	unambiguous	left	preferred	69.0	88.0		24.07371799997054	0.03332190006040037
5	19.522417500033043	stim	3		2	unambiguous	left	preferred	69.0	88.0		24.10703990003094	0.03334600001107901
5	19.555763500044122	stim	4		2	unambiguous	left	preferred	69.0	88.0		24.14038590004202	0.03330439992714673
5	19.58906789997127	stim	5		2	unambiguous	left	preferred	69.0	88.0		24.173690299969167	0.03422360005788505
5	19.623291500029154	stim	6		2	unambiguous	left	preferred	69.0	88.0		24.20791390002705	0.0328381999861449
5	19.6561297000153	stim	7		2	unambiguous	left	preferred	69.0	88.0		24.240752100013196	0.03331560001242906
5	19.689445300027728	stim	8		2	unambiguous	left	preferred	69.0	88.0		24.274067700025626	0.03343209996819496
5	19.722877399995923	stim	9		2	unambiguous	left	preferred	69.0	88.0		24.30749979999382	0.03373040002770722
5	19.75660780002363	stim	10		2	unambiguous	left	preferred	69.0	88.0		24.341230200021528	0.03341299993917346
5	19.790020799962804	stim	11		2	unambiguous	left	preferred	69.0	88.0		24.3746431999607	0.034371000016108155
5	19.824391799978912	stim	12		2	unambiguous	left	preferred	69.0	88.0		24.40901419997681	0.049772300058975816
5	19.874164100037888	stim	13		2	unambiguous	left	preferred	69.0	88.0		24.458786500035785	0.03310979995876551
5	19.907273899996653	stim	14		2	unambiguous	left	preferred	69.0	88.0		24.49189629999455	0.03325810004025698
5	19.94053200003691	stim	15		2	unambiguous	left	preferred	69.0	88.0		24.525154400034808	0.03331249998882413
5	19.973844500025734	stim	16		2	unambiguous	left	preferred	69.0	88.0		24.55846690002363	0.033383599948138
5	20.007228099973872	stim	17		2	unambiguous	left	preferred	69.0	88.0		24.59185049997177	0.0338576000649482
5	20.04108570003882	stim	18		2	unambiguous	left	preferred	69.0	88.0		24.625708100036718	0.03283479996025562
5	20.073920499999076	stim	19		2	unambiguous	left	preferred	69.0	88.0		24.658542899996974	0.033419899991713464
5	20.10734039999079	stim	20		2	unambiguous	left	preferred	69.0	88.0		24.691962799988687	0.033454000018537045
5	20.140794400009327	stim	21		2	unambiguous	left	preferred	69.0	88.0		24.725416800007224	0.033893799991346896
5	20.174688200000674	stim	22		2	unambiguous	left	preferred	69.0	88.0		24.75931059999857	0.03335559996776283
5	20.208043799968436	stim	23		2	unambiguous	left	preferred	69.0	88.0		24.792666199966334	0.03377049998380244
5	20.24181429995224	stim	24		2	unambiguous	left	preferred	69.0	88.0		24.826436699950136	0.03321920009329915
5	20.275033500045538	stim	25		2	unambiguous	left	preferred	69.0	88.0		24.859655900043435	0.03319919994100928
5	20.308232699986547	stim	26		2	unambiguous	left	preferred	69.0	88.0		24.892855099984445	0.03330170002300292
5	20.34153440000955	stim	27		2	unambiguous	left	preferred	69.0	88.0		24.926156800007448	0.033295099972747266
5	20.374829499982297	stim	28		2	unambiguous	left	preferred	69.0	88.0		24.959451899980195	0.03370090003591031
5	20.408530400018208	stim	29		2	unambiguous	left	preferred	69.0	88.0		24.993152800016105	0.03372379997745156
5	20.44225419999566	stim	30		2	unambiguous	left	preferred	69.0	88.0		25.026876599993557	0.033102800021879375
5	20.47535700001754	stim	31		2	unambiguous	left	preferred	69.0	88.0		25.059979400015436	0.03330330003518611
5	20.508660300052725	stim	32		2	unambiguous	left	preferred	69.0	88.0		25.093282700050622	0.03328399988822639
5	20.54194429994095	stim	33		2	unambiguous	left	preferred	69.0	88.0		25.12656669993885	0.03327390004415065
5	20.575218199985102	stim	34		2	unambiguous	left	preferred	69.0	88.0		25.159840599983	0.033495499985292554
5	20.608713699970394	stim	35		2	unambiguous	left	preferred	69.0	88.0		25.193336099968292	0.03330190002452582
5	20.64201559999492	stim	36		2	unambiguous	left	preferred	69.0	88.0		25.226637999992818	0.034287999966181815
5	20.676303599961102	stim	37		2	unambiguous	left	preferred	69.0	88.0		25.260925999959	0.03244280000217259
5	20.708746399963275	stim	38		2	unambiguous	left	preferred	69.0	88.0		25.293368799961172	0.03333450003992766
5	20.742080900003202	stim	39		2	unambiguous	left	preferred	69.0	88.0		25.3267033000011	0.033330800011754036
5	20.775411700014956	stim	40		2	unambiguous	left	preferred	69.0	88.0		25.360034100012854	0.03326940000988543
5	20.80868110002484	stim	41		2	unambiguous	left	preferred	69.0	88.0		25.39330350002274	0.03333449992351234
5	20.842015599948354	stim	42		2	unambiguous	left	preferred	69.0	88.0		25.42663799994625	0.03373150003608316
5	20.875747099984437	stim	43		2	unambiguous	left	preferred	69.0	88.0		25.460369499982335	0.03320820000953972
5	20.908955299993977	stim	44		2	unambiguous	left	preferred	69.0	88.0		25.493577699991874	0.03374550002627075
5	20.942700800020248	stim	45		2	unambiguous	left	preferred	69.0	88.0		25.527323200018145	0.03290089999791235
5	20.97560170001816	stim	46		2	unambiguous	left	preferred	69.0	88.0		25.560224100016057	0.03357620001770556
5	21.009177900035866	stim	47		2	unambiguous	left	preferred	69.0	88.0		25.593800300033763	0.0332894999301061
5	21.04246739996597	stim	48		2	unambiguous	left	preferred	69.0	88.0		25.62708979996387	0.033694599987939
5	21.07616199995391	stim	49		2	unambiguous	left	preferred	69.0	88.0		25.660784399951808	0.03318100003525615
5	21.109342999989167	stim	50		2	unambiguous	left	preferred	69.0	88.0		25.693965399987064	0.0332162999548018
5	21.14255929994397	stim	51		2	unambiguous	left	preferred	69.0	88.0		25.727181699941866	0.03336420003324747
5	21.175923499977216	stim	52		2	unambiguous	left	preferred	69.0	88.0		25.760545899975114	0.03327560005709529
5	21.20919910003431	stim	53		2	unambiguous	left	preferred	69.0	88.0		25.79382150003221	0.03328739991411567
5	21.242486499948427	stim	54		2	unambiguous	left	preferred	69.0	88.0		25.827108899946325	0.03401210007723421
5	21.27649860002566	stim	55		2	unambiguous	left	preferred	69.0	88.0		25.86112100002356	0.03409510001074523
5	21.310593700036407	stim	56		2	unambiguous	left	preferred	69.0	88.0		25.895216100034304	0.0323718999279663
5	21.342965599964373	stim	57		2	unambiguous	left	preferred	69.0	88.0		25.92758799996227	0.033344199997372925
5	21.376309799961746	stim	58		2	unambiguous	left	preferred	69.0	88.0		25.960932199959643	0.03334189997985959
5	21.409651699941605	stim	59		2	unambiguous	left	preferred	69.0	88.0		25.994274099939503	0.03322199999820441
5	21.44287369993981	stim	60		2	unambiguous	left	preferred	69.0	88.0		26.027496099937707	0.03335230005905032
5	21.47622599999886	stim	61		2	unambiguous	left	preferred	69.0	88.0		26.060848399996758	0.033652400015853345
5	21.509878400014713	stim	62		2	unambiguous	left	preferred	69.0	88.0		26.09450080001261	0.033138299942947924
5	21.54301669995766	stim	63		2	unambiguous	left	preferred	69.0	88.0		26.12763909995556	0.03328010009136051
5	21.576296800049022	stim	64		2	unambiguous	left	preferred	69.0	88.0		26.16091920004692	0.03374749992508441
5	21.610044299974106	stim	65		2	unambiguous	left	preferred	69.0	88.0		26.194666699972004	0.03293290000874549
5	21.64297719998285	stim	66		2	unambiguous	left	preferred	69.0	88.0		26.22759959998075	0.03327670006547123
5	21.676253900048323	stim	67		2	unambiguous	left	preferred	69.0	88.0		26.26087630004622	0.03355429996736348
5	21.709808200015686	stim	68		2	unambiguous	left	preferred	69.0	88.0		26.294430600013584	0.03402669995557517
6	21.74383489997126	stim	0		2	unambiguous	left	preferred	68.0	157.0		26.32845729996916	0.03251290007028729
6	21.77634780004155	stim	1		2	unambiguous	left	preferred	68.0	157.0		26.360970200039446	0.033305399934761226
6	21.80965319997631	stim	2		2	unambiguous	left	preferred	68.0	157.0		26.394275599974208	0.03341889998409897
6	21.84307209996041	stim	3		2	unambiguous	left	preferred	68.0	157.0		26.427694499958307	0.03369770001154393
6	21.876769799971953	stim	4		2	unambiguous	left	preferred	68.0	157.0		26.46139219996985	0.033439100021496415
6	21.91020889999345	stim	5		2	unambiguous	left	preferred	68.0	157.0		26.494831299991347	0.03378669999074191
6	21.94399559998419	stim	6		2	unambiguous	left	preferred	68.0	157.0		26.52861799998209	0.03291249996982515
6	21.976908099954017	stim	7		2	unambiguous	left	preferred	68.0	157.0		26.561530499951914	0.03331000008620322
6	22.01021810004022	stim	8		2	unambiguous	left	preferred	68.0	157.0		26.594840500038117	0.033308499958366156
6	22.043526599998586	stim	9		2	unambiguous	left	preferred	68.0	157.0		26.628148999996483	0.03327510005328804
6	22.076801700051874	stim	10		2	unambiguous	left	preferred	68.0	157.0		26.66142410004977	0.033584399963729084
6	22.110386100015603	stim	11		2	unambiguous	left	preferred	68.0	157.0		26.6950085000135	0.03348320000804961
6	22.143869300023653	stim	12		2	unambiguous	left	preferred	68.0	157.0		26.72849170002155	0.033350099925883114
6	22.177219399949536	stim	13		2	unambiguous	left	preferred	68.0	157.0		26.761841799947433	0.03333360003307462
6	22.21055299998261	stim	14		2	unambiguous	left	preferred	68.0	157.0		26.795175399980508	0.03350979997776449
6	22.244062799960375	stim	15		2	unambiguous	left	preferred	68.0	157.0		26.828685199958272	0.03392289998009801
6	22.277985699940473	stim	16		2	unambiguous	left	preferred	68.0	157.0		26.86260809993837	0.03370650007855147
6	22.311692200019024	stim	17		2	unambiguous	left	preferred	68.0	157.0		26.89631460001692	0.033850900013931096
6	22.345543100032955	stim	18		2	unambiguous	left	preferred	68.0	157.0		26.930165500030853	0.03284589992836118
6	22.378388999961317	stim	19		2	unambiguous	left	preferred	68.0	157.0		26.963011399959214	0.033336800057440996
6	22.411725800018758	stim	20		2	unambiguous	left	preferred	68.0	157.0		26.996348200016655	0.03325740003492683
6	22.444983200053684	stim	21		2	unambiguous	left	preferred	68.0	157.0		27.029605600051582	0.03338169993367046
6	22.478364899987355	stim	22		2	unambiguous	left	preferred	68.0	157.0		27.062987299985252	0.03327660006470978
6	22.511641500052065	stim	23		2	unambiguous	left	preferred	68.0	157.0		27.096263900049962	0.03377029998227954
6	22.545411800034344	stim	24		2	unambiguous	left	preferred	68.0	157.0		27.13003420003224	0.033360500005073845
6	22.578772300039418	stim	25		2	unambiguous	left	preferred	68.0	157.0		27.163394700037315	0.03291269997134805
6	22.611685000010766	stim	26		2	unambiguous	left	preferred	68.0	157.0		27.196307400008664	0.03357630001846701
6	22.645261300029233	stim	27		2	unambiguous	left	preferred	68.0	157.0		27.22988370002713	0.033630199963226914
6	22.67889149999246	stim	28		2	unambiguous	left	preferred	68.0	157.0		27.263513899990357	0.033305800054222345
6	22.712197300046682	stim	29		2	unambiguous	left	preferred	68.0	157.0		27.29681970004458	0.03344309993553907
6	22.74564039998222	stim	30		2	unambiguous	left	preferred	68.0	157.0		27.33026279998012	0.03382230002898723
6	22.77946270001121	stim	31		2	unambiguous	left	preferred	68.0	157.0		27.364085100009106	0.032806299976073205
6	22.812268999987282	stim	32		2	unambiguous	left	preferred	68.0	157.0		27.39689139998518	0.03381419996730983
6	22.84608319995459	stim	33		2	unambiguous	left	preferred	68.0	157.0		27.43070559995249	0.033296799985691905
6	22.879379999940284	stim	34		2	unambiguous	left	preferred	68.0	157.0		27.46400239993818	0.033326900098472834
6	22.912706900038756	stim	35		2	unambiguous	left	preferred	68.0	157.0		27.497329300036654	0.03332749998662621
6	22.946034400025383	stim	36		2	unambiguous	left	preferred	68.0	157.0		27.53065680002328	0.03500859998166561
6	22.98104300000705	stim	37		2	unambiguous	left	preferred	68.0	157.0		27.565665400004946	0.03215510002337396
6	23.013198100030422	stim	38		2	unambiguous	left	preferred	68.0	157.0		27.59782050002832	0.033311599981971085
6	23.046509700012393	stim	39		2	unambiguous	left	preferred	68.0	157.0		27.63113210001029	0.033345700008794665
6	23.079855400021188	stim	40		2	unambiguous	left	preferred	68.0	157.0		27.664477800019085	0.03331389999948442
6	23.113169300020672	stim	41		2	unambiguous	left	preferred	68.0	157.0		27.69779170001857	0.033213599934242666
6	23.146382899954915	stim	42		2	unambiguous	left	preferred	68.0	157.0		27.731005299952812	0.03392990003339946
6	23.180312799988315	stim	43		2	unambiguous	left	preferred	68.0	157.0		27.764935199986212	0.033040600013919175
6	23.213353400002234	stim	44		2	unambiguous	left	preferred	68.0	157.0		27.79797580000013	0.03346329997293651
6	23.24681669997517	stim	45		2	unambiguous	left	preferred	68.0	157.0		27.831439099973068	0.033295299974270165
6	23.28011199994944	stim	46		2	unambiguous	left	preferred	68.0	157.0		27.864734399947338	0.033511699992232025
6	23.313623699941672	stim	47		2	unambiguous	left	preferred	68.0	157.0		27.89824609993957	0.0334104000357911
6	23.347034099977463	stim	48		2	unambiguous	left	preferred	68.0	157.0		27.93165649997536	0.03341210004873574
6	23.3804462000262	stim	49		2	unambiguous	left	preferred	68.0	157.0		27.965068600024097	0.033444899949245155
6	23.413891099975444	stim	50		2	unambiguous	left	preferred	68.0	157.0		27.998513499973342	0.03320459998212755
6	23.447095699957572	stim	51		2	unambiguous	left	preferred	68.0	157.0		28.03171809995547	0.033242200035601854
6	23.480337899993174	stim	52		2	unambiguous	left	preferred	68.0	157.0		28.06496029999107	0.033462699968367815
6	23.51380059996154	stim	53		2	unambiguous	left	preferred	68.0	157.0		28.09842299995944	0.03330250002909452
6	23.547103099990636	stim	54		2	unambiguous	left	preferred	68.0	157.0		28.131725499988534	0.033329400001093745
6	23.58043249999173	stim	55		2	unambiguous	left	preferred	68.0	157.0		28.165054899989627	0.03437440004199743
6	23.614806900033727	stim	56		2	unambiguous	left	preferred	68.0	157.0		28.199429300031625	0.03231969999615103
6	23.64712660002988	stim	57		2	unambiguous	left	preferred	68.0	157.0		28.231749000027776	0.03342079999856651
6	23.680547400028445	stim	58		2	unambiguous	left	preferred	68.0	157.0		28.265169800026342	0.03327349992468953
6	23.713820899953134	stim	59		2	unambiguous	left	preferred	68.0	157.0		28.298443299951032	0.03386389999650419
6	23.74768479994964	stim	60		2	unambiguous	left	preferred	68.0	157.0		28.332307199947536	0.03326820000074804
6	23.780952999950387	stim	61		2	unambiguous	left	preferred	68.0	157.0		28.365575399948284	0.03411450004205108
6	23.815067499992438	stim	62		2	unambiguous	left	preferred	68.0	157.0		28.399689899990335	0.032892300048843026
6	23.84795980004128	stim	63		2	unambiguous	left	preferred	68.0	157.0		28.432582200039178	0.0331923000048846
6	23.881152100046165	stim	64		2	unambiguous	left	preferred	68.0	157.0		28.465774500044063	0.033889599959366024
6	23.91504170000553	stim	65		2	unambiguous	left	preferred	68.0	157.0		28.49966410000343	0.03356010001152754
6	23.94860180001706	stim	66		2	unambiguous	left	preferred	68.0	157.0		28.533224200014956	0.049881999962963164
6	23.998483799980022	stim	67		2	unambiguous	left	preferred	68.0	157.0		28.58310619997792	0.03751130006276071
7	24.035995100042783	stim	0		2	unambiguous	left	preferred	71.0	35.0		28.62061750004068	0.029506899998523295
7	24.065502000041306	stim	1		2	unambiguous	left	preferred	71.0	35.0		28.650124400039203	0.0335073999594897
7	24.099009400000796	stim	2		2	unambiguous	left	preferred	71.0	35.0		28.683631799998693	0.033204999985173345
7	24.13221439998597	stim	3		2	unambiguous	left	preferred	71.0	35.0		28.716836799983867	0.0334646999835968
7	24.165679099969566	stim	4		2	unambiguous	left	preferred	71.0	35.0		28.750301499967463	0.033603299991227686
7	24.199282399960794	stim	5		2	unambiguous	left	preferred	71.0	35.0		28.78390479995869	0.033698600018396974
7	24.23298099997919	stim	6		2	unambiguous	left	preferred	71.0	35.0		28.817603399977088	0.032988599967211485
7	24.265969599946402	stim	7		2	unambiguous	left	preferred	71.0	35.0		28.8505919999443	0.0333864000858739
7	24.299356000032276	stim	8		2	unambiguous	left	preferred	71.0	35.0		28.883978400030173	0.0333215999417007
7	24.332677599973977	stim	9		2	unambiguous	left	preferred	71.0	35.0		28.917299999971874	0.03321050002705306
7	24.36588810000103	stim	10		2	unambiguous	left	preferred	71.0	35.0		28.950510499998927	0.033163600019179285
7	24.39905170002021	stim	11		2	unambiguous	left	preferred	71.0	35.0		28.983674100018106	0.03440130001399666
7	24.433453000034206	stim	12		2	unambiguous	left	preferred	71.0	35.0		29.018075400032103	0.033147400012239814
7	24.466600400046445	stim	13		2	unambiguous	left	preferred	71.0	35.0		29.051222800044343	0.036440499941818416
7	24.503040899988264	stim	14		2	unambiguous	left	preferred	71.0	35.0		29.08766329998616	0.03391370002645999
7	24.536954600014724	stim	15		2	unambiguous	left	preferred	71.0	35.0		29.12157700001262	0.03321939997840673
7	24.57017399999313	stim	16		2	unambiguous	left	preferred	71.0	35.0		29.154796399991028	0.03378900000825524
7	24.603963000001386	stim	17		2	unambiguous	left	preferred	71.0	35.0		29.188585399999283	0.03316540003288537
7	24.63712840003427	stim	18		2	unambiguous	left	preferred	71.0	35.0		29.22175080003217	0.033228399930521846
7	24.670356799964793	stim	19		2	unambiguous	left	preferred	71.0	35.0		29.25497919996269	0.033299600007012486
7	24.703656399971806	stim	20		2	unambiguous	left	preferred	71.0	35.0		29.288278799969703	0.03331109997816384
7	24.73696749994997	stim	21		2	unambiguous	left	preferred	71.0	35.0		29.321589899947867	0.03325750003568828
7	24.770224999985658	stim	22		2	unambiguous	left	preferred	71.0	35.0		29.354847399983555	0.032056499971076846
7	24.802281499956734	stim	23		2	unambiguous	left	preferred	71.0	35.0		29.386903899954632	0.0347063000081107
7	24.836987799964845	stim	24		2	unambiguous	left	preferred	71.0	35.0		29.421610199962743	0.033652600017376244
7	24.87064039998222	stim	25		2	unambiguous	left	preferred	71.0	35.0		29.45526279998012	0.0331607999978587
7	24.90380119998008	stim	26		2	unambiguous	left	preferred	71.0	35.0		29.488423599977978	0.033137800055556
7	24.936939000035636	stim	27		2	unambiguous	left	preferred	71.0	35.0		29.521561400033534	0.03339859994594008
7	24.970337599981576	stim	28		2	unambiguous	left	preferred	71.0	35.0		29.554959999979474	0.033255300018936396
7	25.003592900000513	stim	29		2	unambiguous	left	preferred	71.0	35.0		29.58821529999841	0.0340295999776572
7	25.03762249997817	stim	30		2	unambiguous	left	preferred	71.0	35.0		29.622244899976067	0.032676100032404065
7	25.070298600010574	stim	31		2	unambiguous	left	preferred	71.0	35.0		29.65492100000847	0.03510510001797229
7	25.105403700028546	stim	32		2	unambiguous	left	preferred	71.0	35.0		29.690026100026444	0.03149319998919964
7	25.136896900017746	stim	33		2	unambiguous	left	preferred	71.0	35.0		29.721519300015643	0.03336719993967563
7	25.17026409995742	stim	34		0	unambiguous	left	preferred	71.0	35.0		29.75488649995532	-3.8374169999733567
7	21.332847099984065	left	34	f	2	unambiguous	left	preferred	71.0	35.0	7.278089300030842	25.917469499981962	3.870340700028464
7	25.20318780001253	stim	35		2	unambiguous	left	preferred	71.0	35.0		29.787810200010426	0.03402519994415343
7	25.237212999956682	stim	36		2	unambiguous	left	preferred	71.0	35.0		29.82183539995458	0.03369160008151084
7	25.270904600038193	stim	37		2	unambiguous	left	preferred	71.0	35.0		29.85552700003609	0.03303489997051656
7	25.30393950000871	stim	38		2	unambiguous	left	preferred	71.0	35.0		29.888561900006607	0.03317750000860542
7	25.337117000017315	stim	39		2	unambiguous	left	preferred	71.0	35.0		29.921739400015213	0.03311700001358986
7	25.370234000030905	stim	40		2	unambiguous	left	preferred	71.0	35.0		29.954856400028802	0.03337459999602288
7	25.403608600026928	stim	41		2	unambiguous	left	preferred	71.0	35.0		29.988231000024825	0.03348729992285371
7	25.43709589994978	stim	42		2	unambiguous	left	preferred	71.0	35.0		30.02171829994768	0.03472940006759018
7	25.47182530001737	stim	43		2	unambiguous	left	preferred	71.0	35.0		30.05644770001527	0.03226429992355406
7	25.504089599940926	stim	44		2	unambiguous	left	preferred	71.0	35.0		30.088711999938823	0.03452390001621097
7	25.538613499957137	stim	45		2	unambiguous	left	preferred	71.0	35.0		30.123235899955034	0.03226970008108765
7	25.570883200038224	stim	46		2	unambiguous	left	preferred	71.0	35.0		30.155505600036122	0.033433299977332354
7	25.604316500015557	stim	47		2	unambiguous	left	preferred	71.0	35.0		30.188938900013454	0.03330439992714673
7	25.637620899942704	stim	48		2	unambiguous	left	preferred	71.0	35.0		30.2222432999406	0.033899800037033856
7	25.671520699979737	stim	49		2	unambiguous	left	preferred	71.0	35.0		30.256143099977635	0.03324130002874881
7	25.704762000008486	stim	50		2	unambiguous	left	preferred	71.0	35.0		30.289384400006384	0.033216699957847595
7	25.737978699966334	stim	51		2	unambiguous	left	preferred	71.0	35.0		30.32260109996423	0.03338759997859597
7	25.77136629994493	stim	52		2	unambiguous	left	preferred	71.0	35.0		30.355988699942827	0.033280600095167756
7	25.804646900040098	stim	53		2	unambiguous	left	preferred	71.0	35.0		30.389269300037995	0.03331530001014471
7	25.837962200050242	stim	54		2	unambiguous	left	preferred	71.0	35.0		30.42258460004814	0.03380839992314577
7	25.871770599973388	stim	55		2	unambiguous	left	preferred	71.0	35.0		30.456392999971285	0.033145900000818074
7	25.904916499974206	stim	56		2	unambiguous	left	preferred	71.0	35.0		30.489538899972104	0.033296999987214804
7	25.93821349996142	stim	57		2	unambiguous	left	preferred	71.0	35.0		30.52283589995932	0.03334460000041872
7	25.97155809996184	stim	58		2	unambiguous	left	preferred	71.0	35.0		30.556180499959737	0.03334080008789897
7	26.00489890004974	stim	59		2	unambiguous	left	preferred	71.0	35.0		30.589521300047636	0.03331679990515113
7	26.03821569995489	stim	60		2	unambiguous	left	preferred	71.0	35.0		30.622838099952787	0.03352699999231845
7	26.071742699947208	stim	61		2	unambiguous	left	preferred	71.0	35.0		30.656365099945106	0.033373999991454184
7	26.105116699938662	stim	62		2	unambiguous	left	preferred	71.0	35.0		30.68973909993656	0.03327840007841587
7	26.138395100017078	stim	63		2	unambiguous	left	preferred	71.0	35.0		30.723017500014976	0.03348019998520613
7	26.171875300002284	stim	64		2	unambiguous	left	preferred	71.0	35.0		30.756497700000182	0.03312849998474121
7	26.205003799987026	stim	65		2	unambiguous	left	preferred	71.0	35.0		30.789626199984923	0.03333370003383607
7	26.23833750002086	stim	66		2	unambiguous	left	preferred	71.0	35.0		30.82295990001876	0.03388320002704859
7	26.27222070004791	stim	67		2	unambiguous	left	preferred	71.0	35.0		30.856843100045808	0.03402689995709807
7	26.30624760000501	stim	68		2	unambiguous	left	preferred	71.0	35.0		30.890870000002906	0.033034699968993664
7	26.339282299974002	stim	69		2	unambiguous	left	preferred	71.0	35.0		30.9239046999719	0.03321000002324581
7	26.372492299997248	stim	70		2	unambiguous	left	preferred	71.0	35.0		30.957114699995145	0.033627200056798756
8	26.406119500054047	stim	0		2	unambiguous	left	preferred	66.0	106.0		30.990741900051944	0.03343989991117269
8	26.43955939996522	stim	1		2	unambiguous	left	preferred	66.0	106.0		31.024181799963117	0.033550300053320825
8	26.47310970001854	stim	2		2	unambiguous	left	preferred	66.0	106.0		31.057732100016437	0.034266999922692776
8	26.507376699941233	stim	3		2	unambiguous	left	preferred	66.0	106.0		31.09199909993913	0.0325109000550583
8	26.53988759999629	stim	4		2	unambiguous	left	preferred	66.0	106.0		31.12450999999419	0.033545600017532706
8	26.573433200013824	stim	5		2	unambiguous	left	preferred	66.0	106.0		31.15805560001172	0.03300149994902313
8	26.606434699962847	stim	6		2	unambiguous	left	preferred	66.0	106.0		31.191057099960744	0.033329300000332296
8	26.63976399996318	stim	7		2	unambiguous	left	preferred	66.0	106.0		31.224386399961077	0.033310500090010464
8	26.67307450005319	stim	8		2	unambiguous	left	preferred	66.0	106.0		31.257696900051087	0.03395669988822192
8	26.70703119994141	stim	9		2	unambiguous	left	preferred	66.0	106.0		31.29165359993931	0.03314180008601397
8	26.740173000027426	stim	10		2	unambiguous	left	preferred	66.0	106.0		31.324795400025323	0.033405199996195734
8	26.77357820002362	stim	11		2	unambiguous	left	preferred	66.0	106.0		31.35820060002152	0.03323689999524504
8	26.806815100018866	stim	12		2	unambiguous	left	preferred	66.0	106.0		31.391437500016764	0.03332289995159954
8	26.840137999970466	stim	13		2	unambiguous	left	preferred	66.0	106.0		31.424760399968363	0.033368000062182546
8	26.87350600003265	stim	14		2	unambiguous	left	preferred	66.0	106.0		31.458128400030546	0.0337059999583289
8	26.907211999990977	stim	15		2	unambiguous	left	preferred	66.0	106.0		31.491834399988875	0.033111599972471595
8	26.94032359996345	stim	16		2	unambiguous	left	preferred	66.0	106.0		31.524945999961346	0.033307500067166984
8	26.973631100030616	stim	17		2	unambiguous	left	preferred	66.0	106.0		31.558253500028513	0.03329579997807741
8	27.006926900008693	stim	18		2	unambiguous	left	preferred	66.0	106.0		31.59154930000659	0.03315229993313551
8	27.04007919994183	stim	19		2	unambiguous	left	preferred	66.0	106.0		31.624701599939726	0.033343100105412304
8	27.07342230004724	stim	20		2	unambiguous	left	preferred	66.0	106.0		31.65804470004514	0.033664099988527596
8	27.10708640003577	stim	21		2	unambiguous	left	preferred	66.0	106.0		31.691708800033666	0.03424079995602369
8	27.141327199991792	stim	22		2	unambiguous	left	preferred	66.0	106.0		31.72594959998969	0.03251799999270588
8	27.1738451999845	stim	23		2	unambiguous	left	preferred	66.0	106.0		31.758467599982396	0.03328930004499853
8	27.207134500029497	stim	24		2	unambiguous	left	preferred	66.0	106.0		31.791756900027394	0.03327939996961504
8	27.240413899999112	stim	25		2	unambiguous	left	preferred	66.0	106.0		31.82503629999701	0.03323329996783286
8	27.273647199966945	stim	26		2	unambiguous	left	preferred	66.0	106.0		31.858269599964842	0.03341360006015748
8	27.307060800027102	stim	27		2	unambiguous	left	preferred	66.0	106.0		31.891683200025	0.03399629995692521
8	27.341057099984027	stim	28		2	unambiguous	left	preferred	66.0	106.0		31.925679499981925	0.033255300018936396
8	27.374312400002964	stim	29		2	unambiguous	left	preferred	66.0	106.0		31.95893480000086	0.033391900011338294
8	27.407704300014302	stim	30		2	unambiguous	left	preferred	66.0	106.0		31.9923267000122	0.033277599955908954
8	27.44098189997021	stim	31		2	unambiguous	left	preferred	66.0	106.0		32.02560429996811	0.03327820007689297
8	27.474260100047104	stim	32		2	unambiguous	left	preferred	66.0	106.0		32.058882500045	0.033293799962848425
8	27.507553900009952	stim	33		2	unambiguous	left	preferred	66.0	106.0		32.09217630000785	0.03365739993751049
8	27.541211299947463	stim	34		2	unambiguous	left	preferred	66.0	106.0		32.12583369994536	0.0332618000684306
8	27.574473100015894	stim	35		2	unambiguous	left	preferred	66.0	106.0		32.15909550001379	0.033415199955925345
8	27.60788829997182	stim	36		2	unambiguous	left	preferred	66.0	106.0		32.192510699969716	0.033414000063203275
8	27.641302300035022	stim	37		2	unambiguous	left	preferred	66.0	106.0		32.22592470003292	0.03336419991683215
8	27.674666499951854	stim	38		2	unambiguous	left	preferred	66.0	106.0		32.25928889994975	0.03334680001717061
8	27.708013299969025	stim	39		2	unambiguous	left	preferred	66.0	106.0		32.29263569996692	0.03358789999037981
8	27.741601199959405	stim	40		2	unambiguous	left	preferred	66.0	106.0		32.3262235999573	0.033769700094126165
8	27.77537090005353	stim	41		2	unambiguous	left	preferred	66.0	106.0		32.35999330005143	0.03282899991609156
8	27.808199899969622	stim	42		2	unambiguous	left	preferred	66.0	106.0		32.39282229996752	0.033360700006596744
8	27.84156059997622	stim	43		2	unambiguous	left	preferred	66.0	106.0		32.42618299997412	0.03329870000015944
8	27.87485929997638	stim	44		2	unambiguous	left	preferred	66.0	106.0		32.459481699974276	0.033369500073604286
8	27.908228800049983	stim	45		2	unambiguous	left	preferred	66.0	106.0		32.49285120004788	0.033287599915638566
8	27.94151639996562	stim	46		2	unambiguous	left	preferred	66.0	106.0		32.52613879996352	0.03385810006875545
8	27.975374500034377	stim	47		2	unambiguous	left	preferred	66.0	106.0		32.559996900032274	0.033287599915638566
8	28.008662099950016	stim	48		2	unambiguous	left	preferred	66.0	106.0		32.59328449994791	0.03334080008789897
8	28.042002900037915	stim	49		2	unambiguous	left	preferred	66.0	106.0		32.62662530003581	0.03328709991183132
8	28.075289999949746	stim	50		2	unambiguous	left	preferred	66.0	106.0		32.65991239994764	0.03331389999948442
8	28.10860389994923	stim	51		2	unambiguous	left	preferred	66.0	106.0		32.69322629994713	0.03341520007234067
8	28.14201910002157	stim	52		2	unambiguous	left	preferred	66.0	106.0		32.72664150001947	0.033882000017911196
8	28.175901100039482	stim	53		2	unambiguous	left	preferred	66.0	106.0		32.76052350003738	0.03308109997306019
8	28.208982200012542	stim	54		2	unambiguous	left	preferred	66.0	106.0		32.79360460001044	0.033373999991454184
8	28.242356200003996	stim	55		2	unambiguous	left	preferred	66.0	106.0		32.826978600001894	0.03326930000912398
8	28.27562550001312	stim	56		2	unambiguous	left	preferred	66.0	106.0		32.86024790001102	0.03327210003044456
8	28.308897600043565	stim	57		2	unambiguous	left	preferred	66.0	106.0		32.89352000004146	0.03334299998823553
8	28.3422406000318	stim	58		2	unambiguous	left	preferred	66.0	106.0		32.9268630000297	0.033585799974389374
8	28.37582640000619	stim	59		2	unambiguous	left	preferred	66.0	106.0		32.96044880000409	0.03343559999484569
8	28.409262000001036	stim	60		2	unambiguous	left	preferred	66.0	106.0		32.99388439999893	0.03320399997755885
8	28.442465999978594	stim	61		2	unambiguous	left	preferred	66.0	106.0		33.02708839997649	0.033319100039079785
8	28.475785100017674	stim	62		2	unambiguous	left	preferred	66.0	106.0		33.06040750001557	0.03324879996944219
8	28.509033899987116	stim	63		2	unambiguous	left	preferred	66.0	106.0		33.093656299985014	0.033322300063446164
8	28.542356200050563	stim	64		2	unambiguous	left	preferred	66.0	106.0		33.12697860004846	0.03360529989004135
8	28.575961499940604	stim	65		2	unambiguous	left	preferred	66.0	106.0		33.1605838999385	0.034495600033551455
9	28.610457099974155	stim	0		2	unambiguous	left	preferred	43.0	172.0		33.19507949997205	0.03227419999893755
9	28.642731299973093	stim	1		2	unambiguous	left	preferred	43.0	172.0		33.22735369997099	0.03328870004042983
9	28.676020000013523	stim	2		2	unambiguous	left	preferred	43.0	172.0		33.26064240001142	0.03330799995455891
9	28.70932799996808	stim	3		2	unambiguous	left	preferred	43.0	172.0		33.29395039996598	0.03347869997378439
9	28.742806699941866	stim	4		2	unambiguous	left	preferred	43.0	172.0		33.32742909993976	0.0333744001109153
9	28.77618110005278	stim	5		2	unambiguous	left	preferred	43.0	172.0		33.36080350005068	0.033761499915272
9	28.809942599968053	stim	6		2	unambiguous	left	preferred	43.0	172.0		33.39456499996595	0.032981200027279556
9	28.842923799995333	stim	7		2	unambiguous	left	preferred	43.0	172.0		33.42754619999323	0.03345630003605038
9	28.876380100031383	stim	8		2	unambiguous	left	preferred	43.0	172.0		33.46100250002928	0.033369499957188964
9	28.909749599988572	stim	9		2	unambiguous	left	preferred	43.0	172.0		33.49437199998647	0.033480599988251925
9	28.943230199976824	stim	10		2	unambiguous	left	preferred	43.0	172.0		33.52785259997472	0.03348179999738932
9	28.976711999974214	stim	11		2	unambiguous	left	preferred	43.0	172.0		33.56133439997211	0.033818299998529255
9	29.010530299972743	stim	12		2	unambiguous	left	preferred	43.0	172.0		33.59515269997064	0.033243400044739246
9	29.043773700017482	stim	13		2	unambiguous	left	preferred	43.0	172.0		33.62839610001538	0.033264399971812963
9	29.077038099989295	stim	14		2	unambiguous	left	preferred	43.0	172.0		33.66166049998719	0.03332719998434186
9	29.110365299973637	stim	15		2	unambiguous	left	preferred	43.0	172.0		33.694987699971534	0.033309899969026446
9	29.143675199942663	stim	16		2	unambiguous	left	preferred	43.0	172.0		33.72829759994056	0.03341370006091893
9	29.177088900003582	stim	17		2	unambiguous	left	preferred	43.0	172.0		33.76171130000148	0.03352109994739294
9	29.210609999950975	stim	18		2	unambiguous	left	preferred	43.0	172.0		33.79523239994887	0.033676300081424415
9	29.2442863000324	stim	19		2	unambiguous	left	preferred	43.0	172.0		33.8289087000303	0.033007699996232986
9	29.277294000028633	stim	20		2	unambiguous	left	preferred	43.0	172.0		33.86191640002653	0.033437500009313226
9	29.310731500037946	stim	21		2	unambiguous	left	preferred	43.0	172.0		33.89535390003584	0.03374449990224093
9	29.344475999940187	stim	22		2	unambiguous	left	preferred	43.0	172.0		33.929098399938084	0.03342079999856651
9	29.377896799938753	stim	23		2	unambiguous	left	preferred	43.0	172.0		33.96251919993665	0.03404310008045286
9	29.411939900019206	stim	24		2	unambiguous	left	preferred	43.0	172.0		33.996562300017104	0.0335941999219358
9	29.445534099941142	stim	25		2	unambiguous	left	preferred	43.0	172.0		34.03015649993904	0.03278640005737543
9	29.478320499998517	stim	26		2	unambiguous	left	preferred	43.0	172.0		34.062942899996415	0.033538399962708354
9	29.511858899961226	stim	27		2	unambiguous	left	preferred	43.0	172.0		34.09648129995912	0.03332699998281896
9	29.545185899944045	stim	28		2	unambiguous	left	preferred	43.0	172.0		34.12980829994194	0.033305700053460896
9	29.578491599997506	stim	29		2	unambiguous	left	preferred	43.0	172.0		34.1631139999954	0.03408330003730953
9	29.612574900034815	stim	30		2	unambiguous	left	preferred	43.0	172.0		34.19719730003271	0.033594399923458695
9	29.646169299958274	stim	31		2	unambiguous	left	preferred	43.0	172.0		34.23079169995617	0.03296149999368936
9	29.679130799951963	stim	32		2	unambiguous	left	preferred	43.0	172.0		34.26375319994986	0.03334180009551346
9	29.712472600047477	stim	33		2	unambiguous	left	preferred	43.0	172.0		34.297095000045374	0.033524899976328015
9	29.745997500023805	stim	34		2	unambiguous	left	preferred	43.0	172.0		34.3306199000217	0.033075899933464825
9	29.77907339995727	stim	35		2	unambiguous	left	preferred	43.0	172.0		34.36369579995517	0.03362350002862513
9	29.812696899985895	stim	36		2	unambiguous	left	preferred	43.0	172.0		34.39731929998379	0.050193100003525615
9	29.86288999998942	stim	37		2	unambiguous	left	preferred	43.0	172.0		34.44751239998732	0.04979049996472895
9	29.91268049995415	stim	38		2	unambiguous	left	preferred	43.0	172.0		34.49730289995205	0.033941300003789365
9	29.94662179995794	stim	39		2	unambiguous	left	preferred	43.0	172.0		34.531244199955836	0.03394530003424734
9	29.980567099992186	stim	40		2	unambiguous	left	preferred	43.0	172.0		34.56518949999008	0.03348710003774613
9	30.014054200029932	stim	41		2	unambiguous	left	preferred	43.0	172.0		34.59867660002783	0.034495299914851785
9	30.048549499944784	stim	42		2	unambiguous	left	preferred	43.0	172.0		34.63317189994268	0.0325729000614956
0	30.08112240000628	stim	0		600	break	break	preferred	1.0	0.0		34.66574480000418	10.022035300033167
10	40.103157700039446	stim	0		2	ambiguous	ambiguous	preferred	600.0	30.0		44.687780100037344	0.03261919994838536
10	40.13577689998783	stim	1		2	ambiguous	ambiguous	preferred	600.0	30.0		44.72039929998573	0.03395409998483956
10	40.16973099997267	stim	2		2	ambiguous	ambiguous	preferred	600.0	30.0		44.75435339997057	0.03385450004134327
10	40.203585500014015	stim	3		2	ambiguous	ambiguous	preferred	600.0	30.0		44.78820790001191	0.033690699958242476
10	40.23727619997226	stim	4		2	ambiguous	ambiguous	preferred	600.0	30.0		44.821898599970154	0.03433639998547733
10	40.271612599957734	stim	5		2	ambiguous	ambiguous	preferred	600.0	30.0		44.85623499995563	0.03210050007328391
10	40.30371310003102	stim	6		2	ambiguous	ambiguous	preferred	600.0	30.0		44.888335500028916	0.03334660001564771
10	40.337059700046666	stim	7		2	ambiguous	ambiguous	preferred	600.0	30.0		44.92168210004456	0.03350149991456419
10	40.37056119996123	stim	8		2	ambiguous	ambiguous	preferred	600.0	30.0		44.95518359995913	0.033889700076542795
10	40.40445090003777	stim	9		2	ambiguous	ambiguous	preferred	600.0	30.0		44.98907330003567	0.03291499998886138
10	40.437365900026634	stim	10		2	ambiguous	ambiguous	preferred	600.0	30.0		45.02198830002453	0.03311239997856319
10	40.4704783000052	stim	11		2	ambiguous	ambiguous	preferred	600.0	30.0		45.055100700003095	0.03378960001282394
10	40.50426790001802	stim	12		2	ambiguous	ambiguous	preferred	600.0	30.0		45.08889030001592	0.034053999930620193
10	40.53832189994864	stim	13		2	ambiguous	ambiguous	preferred	600.0	30.0		45.12294429994654	0.04949050000868738
10	40.58781239995733	stim	14		2	ambiguous	ambiguous	preferred	600.0	30.0		45.17243479995523	0.050416800077073276
10	40.6382292000344	stim	15		2	ambiguous	ambiguous	preferred	600.0	30.0		45.2228516000323	0.03306819999124855
10	40.67129740002565	stim	16		2	ambiguous	ambiguous	preferred	600.0	30.0		45.25591980002355	0.034098199917934835
10	40.705395599943586	stim	17		2	ambiguous	ambiguous	preferred	600.0	30.0		45.29001799994148	0.03275850007776171
10	40.73815410002135	stim	18		2	ambiguous	ambiguous	preferred	600.0	30.0		45.322776500019245	0.03346930001862347
10	40.77162340003997	stim	19		2	ambiguous	ambiguous	preferred	600.0	30.0		45.35624580003787	0.03372139995917678
10	40.80534479999915	stim	20		2	ambiguous	ambiguous	preferred	600.0	30.0		45.389967199997045	0.033836200018413365
10	40.83918100001756	stim	21		2	ambiguous	ambiguous	preferred	600.0	30.0		45.42380340001546	0.033030099933966994
10	40.87221109995153	stim	22		2	ambiguous	ambiguous	preferred	600.0	30.0		45.456833499949425	0.03326910000760108
10	40.90548019995913	stim	23		2	ambiguous	ambiguous	preferred	600.0	30.0		45.49010259995703	0.033525200095027685
10	40.93900540005416	stim	24		2	ambiguous	ambiguous	preferred	600.0	30.0		45.523627800052054	0.033753099967725575
10	40.97275850002188	stim	25		2	ambiguous	ambiguous	preferred	600.0	30.0		45.55738090001978	0.033516000024974346
10	41.00627450004686	stim	26		2	ambiguous	ambiguous	preferred	600.0	30.0		45.590896900044754	0.03393859998323023
10	41.04021310003009	stim	27		2	ambiguous	ambiguous	preferred	600.0	30.0		45.624835500027984	0.03278889995999634
10	41.07300199999008	stim	28		2	ambiguous	ambiguous	preferred	600.0	30.0		45.65762439998798	0.03320679999887943
10	41.10620879998896	stim	29		2	ambiguous	ambiguous	preferred	600.0	30.0		45.69083119998686	0.03346059995237738
10	41.13966939994134	stim	30		2	ambiguous	ambiguous	preferred	600.0	30.0		45.72429179993924	0.033442100044339895
10	41.17311149998568	stim	31		2	ambiguous	ambiguous	preferred	600.0	30.0		45.75773389998358	0.03325900004711002
10	41.20637050003279	stim	32		2	ambiguous	ambiguous	preferred	600.0	30.0		45.79099290003069	0.03393349994439632
10	41.240303999977186	stim	33		2	ambiguous	ambiguous	preferred	600.0	30.0		45.824926399975084	0.03295650007203221
10	41.27326050004922	stim	34		2	ambiguous	ambiguous	preferred	600.0	30.0		45.857882900047116	0.033301099902018905
10	41.30656159995124	stim	35		2	ambiguous	ambiguous	preferred	600.0	30.0		45.891183999949135	0.03321290004532784
10	41.339774499996565	stim	36		2	ambiguous	ambiguous	preferred	600.0	30.0		45.92439689999446	0.03347070002928376
10	41.37324520002585	stim	37		2	ambiguous	ambiguous	preferred	600.0	30.0		45.95786760002375	0.033764899941161275
10	41.40701009996701	stim	38		2	ambiguous	ambiguous	preferred	600.0	30.0		45.99163249996491	0.033799200085923076
10	41.44080930005293	stim	39		2	ambiguous	ambiguous	preferred	600.0	30.0		46.02543170005083	0.03311079996638
10	41.47392010001931	stim	40		2	ambiguous	ambiguous	preferred	600.0	30.0		46.05854250001721	0.03333869995549321
10	41.50725879997481	stim	41		2	ambiguous	ambiguous	preferred	600.0	30.0		46.091881199972704	0.033316200016997755
10	41.540574999991804	stim	42		2	ambiguous	ambiguous	preferred	600.0	30.0		46.1251973999897	0.03358459996525198
10	41.574159599957056	stim	43		2	ambiguous	ambiguous	preferred	600.0	30.0		46.158781999954954	0.03389429999515414
10	41.60805389995221	stim	44		2	ambiguous	ambiguous	preferred	600.0	30.0		46.19267629995011	0.033759100013412535
10	41.64181299996562	stim	45		2	ambiguous	ambiguous	preferred	600.0	30.0		46.22643539996352	0.033040600013919175
10	41.67485359997954	stim	46		2	ambiguous	ambiguous	preferred	600.0	30.0		46.25947599997744	0.033277600072324276
10	41.70813120005187	stim	47		2	ambiguous	ambiguous	preferred	600.0	30.0		46.292753600049764	0.033346799900755286
10	41.74147799995262	stim	48		2	ambiguous	ambiguous	preferred	600.0	30.0		46.32610039995052	0.033271900028921664
10	41.77474989998154	stim	49		2	ambiguous	ambiguous	preferred	600.0	30.0		46.35937229997944	0.033316700020805
10	41.80806660000235	stim	50		2	ambiguous	ambiguous	preferred	600.0	30.0		46.392689000000246	0.03396020003128797
10	41.842026800033636	stim	51		2	ambiguous	ambiguous	preferred	600.0	30.0		46.426649200031534	0.03353329992387444
10	41.87556009995751	stim	52		2	ambiguous	ambiguous	preferred	600.0	30.0		46.46018249995541	0.033025900018401444
10	41.90858599997591	stim	53		2	ambiguous	ambiguous	preferred	600.0	30.0		46.49320839997381	0.0334098000312224
10	41.941995800007135	stim	54		2	ambiguous	ambiguous	preferred	600.0	30.0		46.52661820000503	0.03316380002070218
10	41.97515960002784	stim	55		2	ambiguous	ambiguous	preferred	600.0	30.0		46.559782000025734	0.033324899966828525
10	42.008484499994665	stim	56		2	ambiguous	ambiguous	preferred	600.0	30.0		46.59310689999256	0.03336480003781617
10	42.04184930003248	stim	57		2	ambiguous	ambiguous	preferred	600.0	30.0		46.62647170003038	0.03380689991172403
10	42.075656199944206	stim	58		2	ambiguous	ambiguous	preferred	600.0	30.0		46.6602785999421	0.033053999999538064
10	42.108710199943744	stim	59		2	ambiguous	ambiguous	preferred	600.0	30.0		46.69333259994164	0.03346900001633912
10	42.14217919996008	stim	60		2	ambiguous	ambiguous	preferred	600.0	30.0		46.72680159995798	0.05006370006594807
10	42.19224290002603	stim	61		2	ambiguous	ambiguous	preferred	600.0	30.0		46.77686530002393	0.03334650001488626
10	42.22558940004092	stim	62		2	ambiguous	ambiguous	preferred	600.0	30.0		46.810211800038815	0.03358459996525198
10	42.25917400000617	stim	63		2	ambiguous	ambiguous	preferred	600.0	30.0		46.84379640000407	0.034333999967202544
10	42.29350799997337	stim	64		2	ambiguous	ambiguous	preferred	600.0	30.0		46.87813039997127	0.03233399998862296
10	42.325841999961995	stim	65		2	ambiguous	ambiguous	preferred	600.0	30.0		46.91046439995989	0.033331100014038384
10	42.35917309997603	stim	66		2	ambiguous	ambiguous	preferred	600.0	30.0		46.94379549997393	0.033664199989289045
10	42.39283729996532	stim	67		2	ambiguous	ambiguous	preferred	600.0	30.0		46.97745969996322	0.0332860000198707
10	42.42612329998519	stim	68		2	ambiguous	ambiguous	preferred	600.0	30.0		47.01074569998309	0.033672000048682094
10	42.459795300033875	stim	69		2	ambiguous	ambiguous	preferred	600.0	30.0		47.04441770003177	0.034102499950677156
10	42.49389779998455	stim	70		2	ambiguous	ambiguous	preferred	600.0	30.0		47.07852019998245	0.03231469995807856
10	42.52621249994263	stim	71		2	ambiguous	ambiguous	preferred	600.0	30.0		47.11083489994053	0.03333170001860708
10	42.55954419996124	stim	72		2	ambiguous	ambiguous	preferred	600.0	30.0		47.144166599959135	0.03366110008209944
10	42.59320530004334	stim	73		2	ambiguous	ambiguous	preferred	600.0	30.0		47.177827700041234	0.03334600001107901
10	42.626551300054416	stim	74		2	ambiguous	ambiguous	preferred	600.0	30.0		47.21117370005231	0.033350099925883114
10	42.6599013999803	stim	75		2	ambiguous	ambiguous	preferred	600.0	30.0		47.2445237999782	0.03396999998949468
10	42.693871399969794	stim	76		2	ambiguous	ambiguous	preferred	600.0	30.0		47.27849379996769	0.03317060007248074
10	42.727042000042275	stim	77		2	ambiguous	ambiguous	preferred	600.0	30.0		47.31166440004017	0.033167599933221936
10	42.7602095999755	stim	78		2	ambiguous	ambiguous	preferred	600.0	30.0		47.344831999973394	0.03325880004558712
10	42.793468400021084	stim	79		2	ambiguous	ambiguous	preferred	600.0	30.0		47.37809080001898	0.03333639993797988
10	42.82680479995906	stim	80		2	ambiguous	ambiguous	preferred	600.0	30.0		47.41142719995696	0.03329300007317215
10	42.860097800032236	stim	81		2	ambiguous	ambiguous	preferred	600.0	30.0		47.44472020003013	0.03361439995933324
10	42.89371219999157	stim	82		2	ambiguous	ambiguous	preferred	600.0	30.0		47.478334599989466	0.0336014999775216
10	42.92731369996909	stim	83		2	ambiguous	ambiguous	preferred	600.0	30.0		47.51193609996699	0.033559000003151596
10	42.96087269997224	stim	84		2	ambiguous	ambiguous	preferred	600.0	30.0		47.54549509997014	0.03344410005956888
10	42.99431680003181	stim	85		2	ambiguous	ambiguous	preferred	600.0	30.0		47.57893920002971	0.03332859999500215
10	43.02764540002681	stim	86		2	ambiguous	ambiguous	preferred	600.0	30.0		47.61226780002471	0.03401579998899251
10	43.061661200015806	stim	87		2	ambiguous	ambiguous	preferred	600.0	30.0		47.6462836000137	0.03347219992429018
10	43.095133399940096	stim	88		2	ambiguous	ambiguous	preferred	600.0	30.0		47.67975579993799	0.03320400009397417
10	43.12833740003407	stim	89		2	ambiguous	ambiguous	preferred	600.0	30.0		47.71295980003197	0.033164699911139905
10	43.16150209994521	stim	90		2	ambiguous	ambiguous	preferred	600.0	30.0		47.74612449994311	0.033437700010836124
10	43.194939799956046	stim	91		2	ambiguous	ambiguous	preferred	600.0	30.0		47.77956219995394	0.03340290009509772
10	43.228342700051144	stim	92		2	ambiguous	ambiguous	preferred	600.0	30.0		47.81296510004904	0.033318799920380116
10	43.261661499971524	stim	93		2	ambiguous	ambiguous	preferred	600.0	30.0		47.84628389996942	0.03342069999780506
10	43.29508219996933	stim	94		2	ambiguous	ambiguous	preferred	600.0	30.0		47.879704599967226	0.03377900004852563
10	43.328861200017855	stim	95		2	ambiguous	ambiguous	preferred	600.0	30.0		47.91348360001575	0.032842000015079975
10	43.361703200032935	stim	96		2	ambiguous	ambiguous	preferred	600.0	30.0		47.94632560003083	0.03364869998767972
10	43.395351900020614	stim	97		0	ambiguous	ambiguous	preferred	600.0	30.0		47.97997430001851	1.129766199970618
10	44.52511809999123	ambiguous	97	f	2	ambiguous	ambiguous	preferred	600.0	30.0	2.3170547999907285	49.10974049998913	-1.096564400009811
10	43.42855369998142	stim	98		2	ambiguous	ambiguous	preferred	600.0	30.0		48.01317609997932	0.03371139999944717
10	43.46226509998087	stim	99		2	ambiguous	ambiguous	preferred	600.0	30.0		48.046887499978766	0.0331496000289917
10	43.49541470000986	stim	100		2	ambiguous	ambiguous	preferred	600.0	30.0		48.08003710000776	0.03393709997180849
10	43.52935179998167	stim	101		2	ambiguous	ambiguous	preferred	600.0	30.0		48.113974199979566	0.03319890005514026
10	43.56255070003681	stim	102		2	ambiguous	ambiguous	preferred	600.0	30.0		48.147173100034706	0.04983469995204359
10	43.61238539998885	stim	103		2	ambiguous	ambiguous	preferred	600.0	30.0		48.19700779998675	0.03317499998956919
10	43.64556039997842	stim	104		2	ambiguous	ambiguous	preferred	600.0	30.0		48.23018279997632	0.03340459999162704
10	43.67896499997005	stim	105		2	ambiguous	ambiguous	preferred	600.0	30.0		48.263587399967946	0.033246700069867074
10	43.712211700039916	stim	106		2	ambiguous	ambiguous	preferred	600.0	30.0		48.29683410003781	0.03384879999794066
10	43.746060500037856	stim	107		2	ambiguous	ambiguous	preferred	600.0	30.0		48.330682900035754	0.03307979996316135
10	43.77914030000102	stim	108		2	ambiguous	ambiguous	preferred	600.0	30.0		48.363762699998915	0.03363540000282228
10	43.81277570000384	stim	109		2	ambiguous	ambiguous	preferred	600.0	30.0		48.39739810000174	0.03375409997534007
10	43.84652979997918	stim	110		2	ambiguous	ambiguous	preferred	600.0	30.0		48.43115219997708	0.0332668999908492
10	43.87979669997003	stim	111		2	ambiguous	ambiguous	preferred	600.0	30.0		48.46441909996793	0.03343680000398308
10	43.91323349997401	stim	112		0	ambiguous	ambiguous	preferred	600.0	30.0		48.49785589997191	0.08345639996696264
