trial_nr	onset	event_type	phase	response	nr_frames	block_type	trial_type	response_hand	phase_length	key_duration	onset_abs	duration
0	0.01285579998511821	stim	0		0	break	break	preferred	1.0		4.269593100063503	2.6702032000757754
0	2.6830590000608936	break	0	space	0	break	break	preferred	1.0	0.08440559997688979	6.939796300139278	0.4127503000199795
0	3.095809300080873	break	0	space	297	break	break	preferred	1.0	0.05799269990529865	7.352546600159258	1.915215199929662
1	5.011024500010535	stim	0		2	ambiguous	ambiguous	preferred	600.0		9.26776180008892	0.03344989998731762
1	5.044474399997853	stim	1		2	ambiguous	ambiguous	preferred	600.0		9.301211700076237	0.03327670006547123
1	5.077751100063324	stim	2		2	ambiguous	ambiguous	preferred	600.0		9.334488400141709	0.03354009997565299
1	5.111291200038977	stim	3		2	ambiguous	ambiguous	preferred	600.0		9.368028500117362	0.033129399991594255
1	5.144420600030571	stim	4		2	ambiguous	ambiguous	preferred	600.0		9.401157900108956	0.033615499967709184
1	5.17803609999828	stim	5		2	ambiguous	ambiguous	preferred	600.0		9.434773400076665	0.03347510006278753
1	5.211511200061068	stim	6		2	ambiguous	ambiguous	preferred	600.0		9.468248500139453	0.0332780999597162
1	5.244789300020784	stim	7		2	ambiguous	ambiguous	preferred	600.0		9.501526600099169	0.03355260007083416
1	5.278341900091618	stim	8		2	ambiguous	ambiguous	preferred	600.0		9.535079200170003	0.0335579999955371
1	5.311899900087155	stim	9		2	ambiguous	ambiguous	preferred	600.0		9.56863720016554	0.03333429992198944
1	5.345234200009145	stim	10		2	ambiguous	ambiguous	preferred	600.0		9.60197150008753	0.03342780005186796
1	5.378662000061013	stim	11		2	ambiguous	ambiguous	preferred	600.0		9.635399300139397	0.033358999993652105
1	5.412021000054665	stim	12		2	ambiguous	ambiguous	preferred	600.0		9.66875830013305	0.033320299931801856
1	5.445341299986467	stim	13		2	ambiguous	ambiguous	preferred	600.0		9.702078600064851	0.03344700008165091
1	5.478788300068118	stim	14		2	ambiguous	ambiguous	preferred	600.0		9.735525600146502	0.03337289998307824
1	5.512161200051196	stim	15		2	ambiguous	ambiguous	preferred	600.0		9.76889850012958	0.03329199994914234
1	5.545453200000338	stim	16		2	ambiguous	ambiguous	preferred	600.0		9.802190500078723	0.033489500056020916
1	5.578942700056359	stim	17		2	ambiguous	ambiguous	preferred	600.0		9.835680000134744	0.03391450003255159
1	5.612857200088911	stim	18		2	ambiguous	ambiguous	preferred	600.0		9.869594500167295	0.033077399944886565
1	5.645934600033797	stim	19		2	ambiguous	ambiguous	preferred	600.0		9.902671900112182	0.034034900018014014
1	5.679969500051811	stim	20		2	ambiguous	ambiguous	preferred	600.0		9.936706800130196	0.035848099971190095
1	5.715817600023001	stim	21		2	ambiguous	ambiguous	preferred	600.0		9.972554900101386	0.033108800067566335
1	5.748926400090568	stim	22		2	ambiguous	ambiguous	preferred	600.0		10.005663700168952	0.03339769993908703
1	5.782324100029655	stim	23		2	ambiguous	ambiguous	preferred	600.0		10.03906140010804	0.03344989998731762
1	5.815774000016972	stim	24		2	ambiguous	ambiguous	preferred	600.0		10.072511300095357	0.0333982000593096
1	5.849172200076282	stim	25		2	ambiguous	ambiguous	preferred	600.0		10.105909500154667	0.033492099959403276
1	5.882664300035685	stim	26		2	ambiguous	ambiguous	preferred	600.0		10.13940160011407	0.03316400002222508
1	5.91582830005791	stim	27		2	ambiguous	ambiguous	preferred	600.0		10.172565600136295	0.03341779997572303
1	5.949246100033633	stim	28		2	ambiguous	ambiguous	preferred	600.0		10.205983400112018	0.03303559997584671
1	5.98228170000948	stim	29		2	ambiguous	ambiguous	preferred	600.0		10.239019000087865	0.033378400024957955
1	6.015660100034438	stim	30		2	ambiguous	ambiguous	preferred	600.0		10.272397400112823	0.03330739994999021
1	6.048967499984428	stim	31		2	ambiguous	ambiguous	preferred	600.0		10.305704800062813	0.03330060001462698
1	6.082268099999055	stim	32		2	ambiguous	ambiguous	preferred	600.0		10.33900540007744	0.033686800044961274
1	6.1159549000440165	stim	33		2	ambiguous	ambiguous	preferred	600.0		10.372692200122401	0.0330485999584198
1	6.149003500002436	stim	34		2	ambiguous	ambiguous	preferred	600.0		10.405740800080821	0.033280699979513884
1	6.18228419998195	stim	35		2	ambiguous	ambiguous	preferred	600.0		10.439021500060335	0.0334295000648126
1	6.215713700046763	stim	36		2	ambiguous	ambiguous	preferred	600.0		10.472451000125147	0.03327140002511442
1	6.248985100071877	stim	37		2	ambiguous	ambiguous	preferred	600.0		10.505722400150262	0.03335969999898225
1	6.2823448000708595	stim	38		2	ambiguous	ambiguous	preferred	600.0		10.539082100149244	0.03354510001372546
1	6.315889900084585	stim	39		2	ambiguous	ambiguous	preferred	600.0		10.57262720016297	0.03322889993432909
1	6.349118800018914	stim	40		2	ambiguous	ambiguous	preferred	600.0		10.605856100097299	0.03353070002049208
1	6.382649500039406	stim	41		2	ambiguous	ambiguous	preferred	600.0		10.63938680011779	0.033078999957069755
1	6.415728499996476	stim	42		2	ambiguous	ambiguous	preferred	600.0		10.67246580007486	0.03340620000381023
1	6.449134700000286	stim	43		2	ambiguous	ambiguous	preferred	600.0		10.70587200007867	0.03325480001512915
1	6.482389500015415	stim	44		2	ambiguous	ambiguous	preferred	600.0		10.7391268000938	0.03330040001310408
1	6.515689900028519	stim	45		2	ambiguous	ambiguous	preferred	600.0		10.772427200106904	0.03362320002634078
1	6.54931310005486	stim	46		2	ambiguous	ambiguous	preferred	600.0		10.806050400133245	0.03307489992585033
1	6.5823879999807104	stim	47		2	ambiguous	ambiguous	preferred	600.0		10.839125300059095	0.033364900038577616
1	6.615752900019288	stim	48		2	ambiguous	ambiguous	preferred	600.0		10.872490200097673	0.03322179999668151
1	6.64897470001597	stim	49		2	ambiguous	ambiguous	preferred	600.0		10.905712000094354	0.03346459998283535
1	6.682439299998805	stim	50		2	ambiguous	ambiguous	preferred	600.0		10.93917660007719	0.033316000015474856
1	6.71575530001428	stim	51		2	ambiguous	ambiguous	preferred	600.0		10.972492600092664	0.03351880004629493
1	6.749274100060575	stim	52		2	ambiguous	ambiguous	preferred	600.0		11.00601140013896	0.0330607999349013
1	6.782334899995476	stim	53		2	ambiguous	ambiguous	preferred	600.0		11.03907220007386	0.03380279999691993
1	6.816137699992396	stim	54		2	ambiguous	ambiguous	preferred	600.0		11.07287500007078	0.033631900092586875
1	6.849769600084983	stim	55		2	ambiguous	ambiguous	preferred	600.0		11.106506900163367	0.033917399938218296
1	6.883687000023201	stim	56		2	ambiguous	ambiguous	preferred	600.0		11.140424300101586	0.03314640000462532
1	6.916833400027826	stim	57		2	ambiguous	ambiguous	preferred	600.0		11.173570700106211	0.033798999967984855
1	6.950632399995811	stim	58		2	ambiguous	ambiguous	preferred	600.0		11.207369700074196	0.03371059999335557
1	6.984342999989167	stim	59		2	ambiguous	ambiguous	preferred	600.0		11.241080300067551	0.03390500007662922
1	7.018248000065796	stim	60		2	ambiguous	ambiguous	preferred	600.0		11.27498530014418	0.03398840001318604
1	7.052236400078982	stim	61		2	ambiguous	ambiguous	preferred	600.0		11.308973700157367	0.033883199910633266
1	7.086119599989615	stim	62		2	ambiguous	ambiguous	preferred	600.0		11.342856900068	0.03378090006299317
1	7.1199005000526085	stim	63		2	ambiguous	ambiguous	preferred	600.0		11.376637800130993	0.033443299937061965
1	7.1533437999896705	stim	64		2	ambiguous	ambiguous	preferred	600.0		11.410081100068055	0.033076200052164495
1	7.186420000041835	stim	65		2	ambiguous	ambiguous	preferred	600.0		11.44315730012022	0.033677599974907935
1	7.220097600016743	stim	66		2	ambiguous	ambiguous	preferred	600.0		11.476834900095128	0.033695499994792044
1	7.253793100011535	stim	67		2	ambiguous	ambiguous	preferred	600.0		11.51053040008992	0.033929400029592216
1	7.287722500041127	stim	68		2	ambiguous	ambiguous	preferred	600.0		11.544459800119512	0.033557499991729856
1	7.321280000032857	stim	69		2	ambiguous	ambiguous	preferred	600.0		11.578017300111242	0.033206499996595085
1	7.354486500029452	stim	70		2	ambiguous	ambiguous	preferred	600.0		11.611223800107837	0.03355209995061159
1	7.388038599980064	stim	71		2	ambiguous	ambiguous	preferred	600.0		11.644775900058448	0.03337499999906868
1	7.421413599979132	stim	72		2	ambiguous	ambiguous	preferred	600.0		11.678150900057517	0.03352890000678599
1	7.454942499985918	stim	73		2	ambiguous	ambiguous	preferred	600.0		11.711679800064303	0.03330460004508495
1	7.488247100031003	stim	74		2	ambiguous	ambiguous	preferred	600.0		11.744984400109388	0.03370030003134161
1	7.521947400062345	stim	75		2	ambiguous	ambiguous	preferred	600.0		11.77868470014073	0.03356299991719425
1	7.555510399979539	stim	76		2	ambiguous	ambiguous	preferred	600.0		11.812247700057924	0.03332100005354732
1	7.5888314000330865	stim	77		2	ambiguous	ambiguous	preferred	600.0		11.845568700111471	0.033613799954764545
1	7.622445199987851	stim	78		2	ambiguous	ambiguous	preferred	600.0		11.879182500066236	0.033325300086289644
1	7.655770500074141	stim	79		2	ambiguous	ambiguous	preferred	600.0		11.912507800152525	0.03351519990246743
1	7.689285699976608	stim	80		2	ambiguous	ambiguous	preferred	600.0		11.946023000054993	0.03341980010736734
1	7.7227055000839755	stim	81		2	ambiguous	ambiguous	preferred	600.0		11.97944280016236	0.03338139993138611
1	7.756086900015362	stim	82		2	ambiguous	ambiguous	preferred	600.0		12.012824200093746	0.03348260000348091
1	7.7895695000188425	stim	83		2	ambiguous	ambiguous	preferred	600.0		12.046306800097227	0.03339210001286119
1	7.822961600031704	stim	84		2	ambiguous	ambiguous	preferred	600.0		12.079698900110088	0.03352980001363903
1	7.856491400045343	stim	85		2	ambiguous	ambiguous	preferred	600.0		12.113228700123727	0.03400859993416816
1	7.890499999979511	stim	86		2	ambiguous	ambiguous	preferred	600.0		12.147237300057895	0.033289600047282875
1	7.923789600026794	stim	87		2	ambiguous	ambiguous	preferred	600.0		12.180526900105178	0.0342355000320822
1	7.958025100058876	stim	88		2	ambiguous	ambiguous	preferred	600.0		12.21476240013726	0.033747099922038615
1	7.991772199980915	stim	89		2	ambiguous	ambiguous	preferred	600.0		12.2485095000593	0.03367670008447021
1	8.025448900065385	stim	90		2	ambiguous	ambiguous	preferred	600.0		12.28218620014377	0.03336230001877993
1	8.058811200084165	stim	91		2	ambiguous	ambiguous	preferred	600.0		12.31554850016255	0.033344299998134375
1	8.0921555000823	stim	92		2	ambiguous	ambiguous	preferred	600.0		12.348892800160684	0.03340559999924153
1	8.12556110008154	stim	93		2	ambiguous	ambiguous	preferred	600.0		12.382298400159925	0.03354639990720898
1	8.15910749998875	stim	94		2	ambiguous	ambiguous	preferred	600.0		12.415844800067134	0.03357279999181628
1	8.192680299980566	stim	95		2	ambiguous	ambiguous	preferred	600.0		12.44941760005895	0.03327560005709529
1	8.225955900037661	stim	96		2	ambiguous	ambiguous	preferred	600.0		12.482693200116046	0.033483400009572506
1	8.259439300047234	stim	97		2	ambiguous	ambiguous	preferred	600.0		12.516176600125618	0.033454100019298494
1	8.292893400066532	stim	98		2	ambiguous	ambiguous	preferred	600.0		12.549630700144917	0.03350679995492101
1	8.326400200021453	stim	99		2	ambiguous	ambiguous	preferred	600.0		12.583137500099838	0.03332030004821718
1	8.35972050006967	stim	100		2	ambiguous	ambiguous	preferred	600.0		12.616457800148055	0.03405040001962334
1	8.393770900089294	stim	101		2	ambiguous	ambiguous	preferred	600.0		12.650508200167678	0.03271479997783899
1	8.426485700067133	stim	102		2	ambiguous	ambiguous	preferred	600.0		12.683223000145517	0.033572199987247586
1	8.46005790005438	stim	103		2	ambiguous	ambiguous	preferred	600.0		12.716795200132765	0.033505699946545064
1	8.493563600000925	stim	104		2	ambiguous	ambiguous	preferred	600.0		12.75030090007931	0.03323729999829084
1	8.526800899999216	stim	105		2	ambiguous	ambiguous	preferred	600.0		12.7835382000776	0.033747200039215386
1	8.560548100038432	stim	106		2	ambiguous	ambiguous	preferred	600.0		12.817285400116816	0.033314700005576015
1	8.593862800044008	stim	107		2	ambiguous	ambiguous	preferred	600.0		12.850600100122392	0.033579900045879185
1	8.627442700089887	stim	108		2	ambiguous	ambiguous	preferred	600.0		12.884180000168271	0.033317299908958375
1	8.660759999998845	stim	109		2	ambiguous	ambiguous	preferred	600.0		12.91749730007723	0.03328239999245852
1	8.694042399991304	stim	110		2	ambiguous	ambiguous	preferred	600.0		12.950779700069688	0.03340290009509772
1	8.727445300086401	stim	111		2	ambiguous	ambiguous	preferred	600.0		12.984182600164786	0.033698299899697304
1	8.761143599986099	stim	112		2	ambiguous	ambiguous	preferred	600.0		13.017880900064483	0.03335740009788424
1	8.794501000083983	stim	113		2	ambiguous	ambiguous	preferred	600.0		13.051238300162368	0.03341879998333752
1	8.82791980006732	stim	114		2	ambiguous	ambiguous	preferred	600.0		13.084657100145705	0.03329459996894002
1	8.86121440003626	stim	115		2	ambiguous	ambiguous	preferred	600.0		13.117951700114645	0.03330230002757162
1	8.894516700063832	stim	116		2	ambiguous	ambiguous	preferred	600.0		13.151254000142217	0.03331420000176877
1	8.9278309000656	stim	117		2	ambiguous	ambiguous	preferred	600.0		13.184568200143985	0.03365909995045513
1	8.961490000016056	stim	118		2	ambiguous	ambiguous	preferred	600.0		13.21822730009444	0.033276300062425435
1	8.994766300078481	stim	119		2	ambiguous	ambiguous	preferred	600.0		13.251503600156866	0.03322469990234822
1	9.02799099998083	stim	120		2	ambiguous	ambiguous	preferred	600.0		13.284728300059214	0.033365000039339066
1	9.061356000020169	stim	121		2	ambiguous	ambiguous	preferred	600.0		13.318093300098553	0.03331219998653978
1	9.094668200006709	stim	122		2	ambiguous	ambiguous	preferred	600.0		13.351405500085093	0.03331389999948442
1	9.127982100006193	stim	123		2	ambiguous	ambiguous	preferred	600.0		13.384719400084578	0.03335070004686713
1	9.16133280005306	stim	124		2	ambiguous	ambiguous	preferred	600.0		13.418070100131445	0.03361129993572831
1	9.194944099988788	stim	125		2	ambiguous	ambiguous	preferred	600.0		13.451681400067173	0.03358980000484735
1	9.228533899993636	stim	126		2	ambiguous	ambiguous	preferred	600.0		13.48527120007202	0.03322780004236847
1	9.261761700036004	stim	127		2	ambiguous	ambiguous	preferred	600.0		13.518499000114389	0.03334389999508858
1	9.295105600031093	stim	128		2	ambiguous	ambiguous	preferred	600.0		13.551842900109477	0.033372299978509545
1	9.328477900009602	stim	129		2	ambiguous	ambiguous	preferred	600.0		13.585215200087987	0.03347570006735623
1	9.361953600076959	stim	130		2	ambiguous	ambiguous	preferred	600.0		13.618690900155343	0.033588799997232854
1	9.395542400074191	stim	131		2	ambiguous	ambiguous	preferred	600.0		13.652279700152576	0.033474599942564964
1	9.429017000016756	stim	132		2	ambiguous	ambiguous	preferred	600.0		13.685754300095141	0.03328430000692606
1	9.462301300023682	stim	133		2	ambiguous	ambiguous	preferred	600.0		13.719038600102067	0.033316700020805
1	9.495618000044487	stim	134		2	ambiguous	ambiguous	preferred	600.0		13.752355300122872	0.033389999996870756
1	9.529008000041358	stim	135		2	ambiguous	ambiguous	preferred	600.0		13.785745300119743	0.03398079995531589
1	9.562988799996674	stim	136		2	ambiguous	ambiguous	preferred	600.0		13.819726100075059	0.033587399986572564
1	9.596576199983247	stim	137		2	ambiguous	ambiguous	preferred	600.0		13.853313500061631	0.0331616000039503
1	9.629737799987197	stim	138		2	ambiguous	ambiguous	preferred	600.0		13.886475100065582	0.03590510005597025
1	9.665642900043167	stim	139		2	ambiguous	ambiguous	preferred	600.0		13.922380200121552	0.03310010000132024
1	9.698743000044487	stim	140		2	ambiguous	ambiguous	preferred	600.0		13.955480300122872	0.033496799995191395
1	9.732239800039679	stim	141		2	ambiguous	ambiguous	preferred	600.0		13.988977100118063	0.033639300032518804
1	9.765879100072198	stim	142		2	ambiguous	ambiguous	preferred	600.0		14.022616400150582	0.03323980001732707
1	9.799118900089525	stim	143		2	ambiguous	ambiguous	preferred	600.0		14.05585620016791	0.03313299990259111
1	9.832251899992116	stim	144		2	ambiguous	ambiguous	preferred	600.0		14.0889892000705	0.03330830007325858
1	9.865560200065374	stim	145		2	ambiguous	ambiguous	preferred	600.0		14.122297500143759	0.03341009991709143
1	9.898970299982466	stim	146		2	ambiguous	ambiguous	preferred	600.0		14.15570760006085	0.033200800069607794
1	9.932171100052074	stim	147		2	ambiguous	ambiguous	preferred	600.0		14.188908400130458	0.03334650001488626
1	9.96551760006696	stim	148		2	ambiguous	ambiguous	preferred	600.0		14.222254900145344	0.0333953999215737
1	9.998912999988534	stim	149		2	ambiguous	ambiguous	preferred	600.0		14.255650300066918	0.0332935000769794
1	10.032206500065513	stim	150		2	ambiguous	ambiguous	preferred	600.0		14.288943800143898	0.033301500021480024
1	10.065508000086993	stim	151		2	ambiguous	ambiguous	preferred	600.0		14.322245300165378	0.0333518999395892
1	10.098859900026582	stim	152		2	ambiguous	ambiguous	preferred	600.0		14.355597200104967	0.03337279998231679
1	10.132232700008899	stim	153		2	ambiguous	ambiguous	preferred	600.0		14.388970000087284	0.033287900034338236
1	10.165520600043237	stim	154		2	ambiguous	ambiguous	preferred	600.0		14.422257900121622	0.03343660000246018
1	10.198957200045697	stim	155		2	ambiguous	ambiguous	preferred	600.0		14.455694500124082	0.033476099953986704
1	10.232433299999684	stim	156		2	ambiguous	ambiguous	preferred	600.0		14.489170600078069	0.03324460005387664
1	10.26567790005356	stim	157		2	ambiguous	ambiguous	preferred	600.0		14.522415200131945	0.03329019993543625
1	10.298968099988997	stim	158		2	ambiguous	ambiguous	preferred	600.0		14.555705400067382	0.033826000057160854
1	10.332794100046158	stim	159		2	ambiguous	ambiguous	preferred	600.0		14.589531400124542	0.033956200000829995
1	10.366750300046988	stim	160		2	ambiguous	ambiguous	preferred	600.0		14.623487600125372	0.03369429998565465
1	10.400444600032642	stim	161		2	ambiguous	ambiguous	preferred	600.0		14.657181900111027	0.03337920003104955
1	10.433823800063692	stim	162		2	ambiguous	ambiguous	preferred	600.0		14.690561100142077	0.03374340001028031
1	10.467567200073972	stim	163		2	ambiguous	ambiguous	preferred	600.0		14.724304500152357	0.03393169993069023
1	10.501498900004663	stim	164		2	ambiguous	ambiguous	preferred	600.0		14.758236200083047	0.03365040000062436
1	10.535149300005287	stim	165		2	ambiguous	ambiguous	preferred	600.0		14.791886600083672	0.035771500086411834
1	10.570920800091699	stim	166		2	ambiguous	ambiguous	preferred	600.0		14.827658100170083	0.047988499980419874
1	10.618909300072119	stim	167		2	ambiguous	ambiguous	preferred	600.0		14.875646600150503	0.03322939993813634
1	10.652138700010255	stim	168		2	ambiguous	ambiguous	preferred	600.0		14.90887600008864	0.03345119999721646
1	10.685589900007471	stim	169		2	ambiguous	ambiguous	preferred	600.0		14.942327200085856	0.03324570006225258
1	10.718835600069724	stim	170		2	ambiguous	ambiguous	preferred	600.0		14.975572900148109	0.03343670000322163
1	10.752272300072946	stim	171		2	ambiguous	ambiguous	preferred	600.0		15.00900960015133	0.033335099928081036
1	10.785607400001027	stim	172		2	ambiguous	ambiguous	preferred	600.0		15.042344700079411	0.03380470001138747
1	10.819412100012414	stim	173		2	ambiguous	ambiguous	preferred	600.0		15.076149400090799	0.03297649999149144
1	10.852388600003906	stim	174		2	ambiguous	ambiguous	preferred	600.0		15.10912590008229	0.03366680000908673
1	10.886055400012992	stim	175		2	ambiguous	ambiguous	preferred	600.0		15.142792700091377	0.03340740001294762
1	10.91946280002594	stim	176		2	ambiguous	ambiguous	preferred	600.0		15.176200100104325	0.03346519998740405
1	10.952928000013344	stim	177		2	ambiguous	ambiguous	preferred	600.0		15.209665300091729	0.03335659997537732
1	10.986284599988721	stim	178		2	ambiguous	ambiguous	preferred	600.0		15.243021900067106	0.033433500095270574
1	11.019718100083992	stim	179		2	ambiguous	ambiguous	preferred	600.0		15.276455400162376	0.0331418999703601
1	11.052860000054352	stim	180		2	ambiguous	ambiguous	preferred	600.0		15.309597300132737	0.033379700034856796
1	11.086239700089209	stim	181		2	ambiguous	ambiguous	preferred	600.0		15.342977000167593	0.03327689995057881
1	11.119516600039788	stim	182		2	ambiguous	ambiguous	preferred	600.0		15.376253900118172	0.03357780002988875
1	11.153094400069676	stim	183		2	ambiguous	ambiguous	preferred	600.0		15.409831700148061	0.033500000019557774
1	11.186594400089234	stim	184		2	ambiguous	ambiguous	preferred	600.0		15.443331700167619	0.05026799999177456
1	11.236862400081009	stim	185		2	ambiguous	ambiguous	preferred	600.0		15.493599700159393	0.03333249990828335
1	11.270194899989292	stim	186		2	ambiguous	ambiguous	preferred	600.0		15.526932200067677	0.03345730004366487
1	11.303652200032957	stim	187		2	ambiguous	ambiguous	preferred	600.0		15.560389500111341	0.03327550005633384
1	11.33692770008929	stim	188		2	ambiguous	ambiguous	preferred	600.0		15.593665000167675	0.03324509994126856
1	11.37017280003056	stim	189		2	ambiguous	ambiguous	preferred	600.0		15.626910100108944	0.03331359999720007
1	11.40348640002776	stim	190		2	ambiguous	ambiguous	preferred	600.0		15.660223700106144	0.033569599967449903
1	11.43705599999521	stim	191		2	ambiguous	ambiguous	preferred	600.0		15.693793300073594	0.033225900027900934
1	11.47028190002311	stim	192		2	ambiguous	ambiguous	preferred	600.0		15.727019200101495	0.03333310002926737
1	11.503615000052378	stim	193		2	ambiguous	ambiguous	preferred	600.0		15.760352300130762	0.033422800013795495
1	11.537037800066173	stim	194		2	ambiguous	ambiguous	preferred	600.0		15.793775100144558	0.033317399909719825
1	11.570355199975893	stim	195		2	ambiguous	ambiguous	preferred	600.0		15.827092500054277	0.03333190002012998
1	11.603687099996023	stim	196		2	ambiguous	ambiguous	preferred	600.0		15.860424400074407	0.033516200026497245
1	11.63720330002252	stim	197		2	ambiguous	ambiguous	preferred	600.0		15.893940600100905	0.03336030000355095
1	11.670563600026071	stim	198		2	ambiguous	ambiguous	preferred	600.0		15.927300900104456	0.033454100019298494
1	11.70401770004537	stim	199		2	ambiguous	ambiguous	preferred	600.0		15.960755000123754	0.0332118000369519
1	11.737229500082321	stim	200		2	ambiguous	ambiguous	preferred	600.0		15.993966800160706	0.03333929996006191
1	11.770568800042383	stim	201		2	ambiguous	ambiguous	preferred	600.0		16.027306100120768	0.033471800037659705
1	11.804040600080043	stim	202		2	ambiguous	ambiguous	preferred	600.0		16.060777900158428	0.03328829992096871
1	11.837328900001012	stim	203		2	ambiguous	ambiguous	preferred	600.0		16.094066200079396	0.03344470006413758
1	11.87077360006515	stim	204		2	ambiguous	ambiguous	preferred	600.0		16.127510900143534	0.03323489998001605
1	11.904008500045165	stim	205		2	ambiguous	ambiguous	preferred	600.0		16.16074580012355	0.03325019998010248
1	11.937258700025268	stim	206		2	ambiguous	ambiguous	preferred	600.0		16.193996000103652	0.03336460003629327
1	11.970623300061561	stim	207		2	ambiguous	ambiguous	preferred	600.0		16.227360600139946	0.0336634999839589
1	12.00428680004552	stim	208		2	ambiguous	ambiguous	preferred	600.0		16.261024100123905	0.03333579993341118
1	12.037622599978931	stim	209		2	ambiguous	ambiguous	preferred	600.0		16.294359900057316	0.0336783000966534
1	12.071300900075585	stim	210		2	ambiguous	ambiguous	preferred	600.0		16.32803820015397	0.03304090001620352
1	12.104341800091788	stim	211		2	ambiguous	ambiguous	preferred	600.0		16.361079100170173	0.033548399922437966
1	12.137890200014226	stim	212		2	ambiguous	ambiguous	preferred	600.0		16.39462750009261	0.033344399998895824
1	12.171234600013122	stim	213		2	ambiguous	ambiguous	preferred	600.0		16.427971900091507	0.03351500001735985
1	12.204749600030482	stim	214		2	ambiguous	ambiguous	preferred	600.0		16.461486900108866	0.03345870005432516
1	12.238208300084807	stim	215		2	ambiguous	ambiguous	preferred	600.0		16.49494560016319	0.03348959994036704
1	12.271697900025174	stim	216		2	ambiguous	ambiguous	preferred	600.0		16.52843520010356	0.033257100032642484
1	12.304955000057817	stim	217		2	ambiguous	ambiguous	preferred	600.0		16.5616923001362	0.03329459996894002
1	12.338249600026757	stim	218		2	ambiguous	ambiguous	preferred	600.0		16.59498690010514	0.033787399996072054
1	12.372037000022829	stim	219		2	ambiguous	ambiguous	preferred	600.0		16.628774300101213	0.03344859997741878
1	12.405485600000247	stim	220		2	ambiguous	ambiguous	preferred	600.0		16.662222900078632	0.03343539999332279
1	12.43892099999357	stim	221		2	ambiguous	ambiguous	preferred	600.0		16.695658300071955	0.033493900089524686
1	12.472414900083095	stim	222		2	ambiguous	ambiguous	preferred	600.0		16.72915220016148	0.03386629989836365
1	12.506281199981458	stim	223		2	ambiguous	ambiguous	preferred	600.0		16.763018500059843	0.03352850000374019
1	12.539809699985199	stim	224		2	ambiguous	ambiguous	preferred	600.0		16.796547000063583	0.03343650000169873
1	12.573246199986897	stim	225		2	ambiguous	ambiguous	preferred	600.0		16.829983500065282	0.03354380000382662
1	12.606789999990724	stim	226		2	ambiguous	ambiguous	preferred	600.0		16.86352730006911	0.03354760003276169
1	12.640337600023486	stim	227		2	ambiguous	ambiguous	preferred	600.0		16.89707490010187	0.03332449996378273
1	12.673662099987268	stim	228		2	ambiguous	ambiguous	preferred	600.0		16.930399400065653	0.033534200047142804
1	12.707196300034411	stim	229		2	ambiguous	ambiguous	preferred	600.0		16.963933600112796	0.050216499948874116
1	12.757412799983285	stim	230		2	ambiguous	ambiguous	preferred	600.0		17.01415010006167	0.05010300001595169
1	12.807515799999237	stim	231		2	ambiguous	ambiguous	preferred	600.0		17.06425310007762	0.03342310001607984
1	12.840938900015317	stim	232		2	ambiguous	ambiguous	preferred	600.0		17.0976762000937	0.0333982000593096
1	12.874337100074627	stim	233		2	ambiguous	ambiguous	preferred	600.0		17.13107440015301	0.03353129990864545
1	12.907868399983272	stim	234		2	ambiguous	ambiguous	preferred	600.0		17.164605700061657	0.033176900004036725
1	12.941045299987309	stim	235		2	ambiguous	ambiguous	preferred	600.0		17.197782600065693	0.03368100000079721
1	12.974726299988106	stim	236		2	ambiguous	ambiguous	preferred	600.0		17.23146360006649	0.03325660002883524
1	13.007982900016941	stim	237		2	ambiguous	ambiguous	preferred	600.0		17.264720200095326	0.03349569998681545
1	13.041478600003757	stim	238		2	ambiguous	ambiguous	preferred	600.0		17.29821590008214	0.033289400045759976
1	13.074768000049517	stim	239		2	ambiguous	ambiguous	preferred	600.0		17.3315053001279	0.03378779999911785
1	13.108555800048634	stim	240		2	ambiguous	ambiguous	preferred	600.0		17.36529310012702	0.03308079997077584
1	13.14163660001941	stim	241		2	ambiguous	ambiguous	preferred	600.0		17.398373900097795	0.03336120001040399
1	13.174997800029814	stim	242		2	ambiguous	ambiguous	preferred	600.0		17.4317351001082	0.033323299954645336
1	13.20832109998446	stim	243		2	ambiguous	ambiguous	preferred	600.0		17.465058400062844	0.033553300076164305
1	13.241874400060624	stim	244		2	ambiguous	ambiguous	preferred	600.0		17.49861170013901	0.033746000030077994
1	13.275620400090702	stim	245		2	ambiguous	ambiguous	preferred	600.0		17.532357700169086	0.03339799994137138
1	13.309018400032073	stim	246		2	ambiguous	ambiguous	preferred	600.0		17.565755700110458	0.03334950003772974
1	13.342367900069803	stim	247		2	ambiguous	ambiguous	preferred	600.0		17.599105200148188	0.033797699958086014
1	13.376165600027889	stim	248		2	ambiguous	ambiguous	preferred	600.0		17.632902900106274	0.03355729999020696
1	13.409722900018096	stim	249		2	ambiguous	ambiguous	preferred	600.0		17.66646020009648	0.03340770001523197
1	13.443130600033328	stim	250		2	ambiguous	ambiguous	preferred	600.0		17.699867900111713	0.03362330002710223
1	13.47675390006043	stim	251		2	ambiguous	ambiguous	preferred	600.0		17.733491200138815	0.03327949997037649
1	13.510033400030807	stim	252		2	ambiguous	ambiguous	preferred	600.0		17.76677070010919	0.03328430000692606
1	13.543317700037733	stim	253		2	ambiguous	ambiguous	preferred	600.0		17.800055000116117	0.03341479995287955
1	13.576732499990612	stim	254		2	ambiguous	ambiguous	preferred	600.0		17.833469800068997	0.0335890999995172
1	13.61032159999013	stim	255		2	ambiguous	ambiguous	preferred	600.0		17.867058900068514	0.03319810004904866
1	13.643519700039178	stim	256		2	ambiguous	ambiguous	preferred	600.0		17.900257000117563	0.03364759997930378
1	13.677167300018482	stim	257		2	ambiguous	ambiguous	preferred	600.0		17.933904600096866	0.050017100060358644
1	13.72718440007884	stim	258		2	ambiguous	ambiguous	preferred	600.0		17.983921700157225	0.03340849990490824
1	13.760592899983749	stim	259		2	ambiguous	ambiguous	preferred	600.0		18.017330200062133	0.03333970007952303
1	13.793932600063272	stim	260		2	ambiguous	ambiguous	preferred	600.0		18.050669900141656	0.033258199924603105
1	13.827190799987875	stim	261		2	ambiguous	ambiguous	preferred	600.0		18.08392810006626	0.03343730000779033
1	13.860628099995665	stim	262		2	ambiguous	ambiguous	preferred	600.0		18.11736540007405	0.04999329999554902
1	13.910621399991214	stim	263		2	ambiguous	ambiguous	preferred	600.0		18.1673587000696	0.03331070009153336
1	13.943932100082748	stim	264		2	ambiguous	ambiguous	preferred	600.0		18.200669400161132	0.03335539996623993
1	13.977287500048988	stim	265		2	ambiguous	ambiguous	preferred	600.0		18.234024800127372	0.05007769993972033
1	14.027365199988708	stim	266		2	ambiguous	ambiguous	preferred	600.0		18.284102500067092	0.03317000006791204
1	14.06053520005662	stim	267		2	ambiguous	ambiguous	preferred	600.0		18.317272500135005	0.03373649995774031
1	14.09427170001436	stim	268		2	ambiguous	ambiguous	preferred	600.0		18.351009000092745	0.05037349998019636
1	14.144645199994557	stim	269		2	ambiguous	ambiguous	preferred	600.0		18.40138250007294	0.033129199990071356
1	14.177774399984628	stim	270		2	ambiguous	ambiguous	preferred	600.0		18.434511700063013	0.03347380005288869
1	14.211248200037517	stim	271		2	ambiguous	ambiguous	preferred	600.0		18.4679855001159	0.03384920000098646
1	14.245097400038503	stim	272		2	ambiguous	ambiguous	preferred	600.0		18.501834700116888	0.033336899941787124
1	14.27843429998029	stim	273		2	ambiguous	ambiguous	preferred	600.0		18.535171600058675	0.03322850004769862
1	14.311662800027989	stim	274		2	ambiguous	ambiguous	preferred	600.0		18.568400100106373	0.03387489996384829
1	14.345537699991837	stim	275		2	ambiguous	ambiguous	preferred	600.0		18.60227500007022	0.03314660000614822
1	14.378684299997985	stim	276		2	ambiguous	ambiguous	preferred	600.0		18.63542160007637	0.033351700054481626
1	14.412036000052467	stim	277		2	ambiguous	ambiguous	preferred	600.0		18.66877330013085	0.03328899992629886
1	14.445324999978766	stim	278		2	ambiguous	ambiguous	preferred	600.0		18.70206230005715	0.03341460006777197
1	14.478739600046538	stim	279		2	ambiguous	ambiguous	preferred	600.0		18.735476900124922	0.03382519993465394
1	14.512564799981192	stim	280		2	ambiguous	ambiguous	preferred	600.0		18.769302100059576	0.05014669999945909
1	14.56271149998065	stim	281		2	ambiguous	ambiguous	preferred	600.0		18.819448800059035	0.04981920006684959
1	14.6125307000475	stim	282		2	ambiguous	ambiguous	preferred	600.0		18.869268000125885	0.033562300028279424
1	14.64609300007578	stim	283		2	ambiguous	ambiguous	preferred	600.0		18.902830300154164	0.03324279992375523
1	14.679335799999535	stim	284		2	ambiguous	ambiguous	preferred	600.0		18.93607310007792	0.03372260008472949
1	14.713058400084265	stim	285		2	ambiguous	ambiguous	preferred	600.0		18.96979570016265	0.05020459997467697
1	14.763263000058942	stim	286		2	ambiguous	ambiguous	preferred	600.0		19.020000300137326	0.03331590001471341
1	14.796578900073655	stim	287		2	ambiguous	ambiguous	preferred	600.0		19.05331620015204	0.049812200013548136
1	14.846391100087203	stim	288		2	ambiguous	ambiguous	preferred	600.0		19.103128400165588	0.03346049995161593
1	14.879851600038819	stim	289		2	ambiguous	ambiguous	preferred	600.0		19.136588900117204	0.03341879998333752
1	14.913270400022157	stim	290		2	ambiguous	ambiguous	preferred	600.0		19.17000770010054	0.033319100039079785
1	14.946589500061236	stim	291		2	ambiguous	ambiguous	preferred	600.0		19.20332680013962	0.03350889997091144
1	14.980098400032148	stim	292		2	ambiguous	ambiguous	preferred	600.0		19.236835700110532	0.052492700051516294
1	15.032591100083664	stim	293		2	ambiguous	ambiguous	preferred	600.0		19.28932840016205	0.031029899953864515
1	15.063621000037529	stim	294		2	ambiguous	ambiguous	preferred	600.0		19.320358300115913	0.03333849995397031
1	15.096959499991499	stim	295		2	ambiguous	ambiguous	preferred	600.0		19.353696800069883	0.0500400000018999
1	15.146999499993399	stim	296		2	ambiguous	ambiguous	preferred	600.0		19.403736800071783	0.050248100073076785
1	15.197247600066476	stim	297		2	ambiguous	ambiguous	preferred	600.0		19.45398490014486	0.05192019999958575
1	15.249167800066061	stim	298		2	ambiguous	ambiguous	preferred	600.0		19.505905100144446	0.033545800019055605
1	15.282713600085117	stim	299		2	ambiguous	ambiguous	preferred	600.0		19.5394509001635	0.03352880000602454
1	15.316242400091141	stim	300		2	ambiguous	ambiguous	preferred	600.0		19.572979700169526	0.033115999889560044
1	15.349358399980702	stim	301		2	ambiguous	ambiguous	preferred	600.0		19.606095700059086	0.033560400013811886
1	15.382918799994513	stim	302		2	ambiguous	ambiguous	preferred	600.0		19.639656100072898	0.03314260009210557
1	15.416061400086619	stim	303		2	ambiguous	ambiguous	preferred	600.0		19.672798700165004	0.05022330000065267
1	15.466284700087272	stim	304		2	ambiguous	ambiguous	preferred	600.0		19.723022000165656	0.033098199986852705
1	15.499382900074124	stim	305		2	ambiguous	ambiguous	preferred	600.0		19.75612020015251	0.0338429999537766
1	15.533225900027901	stim	306		2	ambiguous	ambiguous	preferred	600.0		19.789963200106286	0.04946230002678931
1	15.58268820005469	stim	307		2	ambiguous	ambiguous	preferred	600.0		19.839425500133075	0.03321060002781451
1	15.615898800082505	stim	308		2	ambiguous	ambiguous	preferred	600.0		19.87263610016089	0.033686199923977256
1	15.649585000006482	stim	309		2	ambiguous	ambiguous	preferred	600.0		19.906322300084867	0.0332309000659734
1	15.682815900072455	stim	310		2	ambiguous	ambiguous	preferred	600.0		19.93955320015084	0.03322470001876354
1	15.716040600091219	stim	311		2	ambiguous	ambiguous	preferred	600.0		19.972777900169604	0.03348899993579835
1	15.749529600027017	stim	312		2	ambiguous	ambiguous	preferred	600.0		20.006266900105402	0.03420260001439601
1	15.783732200041413	stim	313		2	ambiguous	ambiguous	preferred	600.0		20.040469500119798	0.032323600025847554
1	15.81605580006726	stim	314		2	ambiguous	ambiguous	preferred	600.0		20.072793100145645	0.03401810000650585
1	15.850073900073767	stim	315		2	ambiguous	ambiguous	preferred	600.0		20.10681120015215	0.05041939998045564
1	15.900493300054222	stim	316		2	ambiguous	ambiguous	preferred	600.0		20.157230600132607	0.032323400024324656
1	15.932816700078547	stim	317		2	ambiguous	ambiguous	preferred	600.0		20.18955400015693	0.034052399918437004
1	15.966869099996984	stim	318		2	ambiguous	ambiguous	preferred	600.0		20.22360640007537	0.03388260002247989
1	16.000751700019464	stim	319		2	ambiguous	ambiguous	preferred	600.0		20.25748900009785	0.03196230006869882
1	16.032714000088163	stim	320		2	ambiguous	ambiguous	preferred	600.0		20.289451300166547	0.03337279998231679
1	16.06608680007048	stim	321		2	ambiguous	ambiguous	preferred	600.0		20.322824100148864	0.03317650000099093
1	16.09926330007147	stim	322		2	ambiguous	ambiguous	preferred	600.0		20.356000600149855	0.03444099996704608
1	16.133704300038517	stim	323		2	ambiguous	ambiguous	preferred	600.0		20.3904416001169	0.03229849995113909
1	16.166002799989656	stim	324		2	ambiguous	ambiguous	preferred	600.0		20.42274010006804	0.049973900080658495
1	16.215976700070314	stim	325		2	ambiguous	ambiguous	preferred	600.0		20.4727140001487	0.03331099997740239
1	16.249287700047716	stim	326		2	ambiguous	ambiguous	preferred	600.0		20.5060250001261	0.03338529996108264
1	16.2826730000088	stim	327		2	ambiguous	ambiguous	preferred	600.0		20.539410300087184	0.03374159999657422
1	16.316414600005373	stim	328		2	ambiguous	ambiguous	preferred	600.0		20.573151900083758	0.034605100052431226
1	16.351019700057805	stim	329		2	ambiguous	ambiguous	preferred	600.0		20.60775700013619	0.0316392999375239
1	16.38265899999533	stim	330		2	ambiguous	ambiguous	preferred	600.0		20.639396300073713	0.0347061000065878
1	16.417365100001916	stim	331		2	ambiguous	ambiguous	preferred	600.0		20.6741024000803	0.032547199982218444
1	16.449912299984135	stim	332		2	ambiguous	ambiguous	preferred	600.0		20.70664960006252	0.03325890004634857
1	16.483171200030483	stim	333		2	ambiguous	ambiguous	preferred	600.0		20.739908500108868	0.033316000015474856
1	16.516487200045958	stim	334		2	ambiguous	ambiguous	preferred	600.0		20.773224500124343	0.03392760001588613
1	16.550414800061844	stim	335		2	ambiguous	ambiguous	preferred	600.0		20.80715210014023	0.03316979994997382
1	16.583584600011818	stim	336		2	ambiguous	ambiguous	preferred	600.0		20.840321900090203	0.03338530007749796
1	16.616969900089316	stim	337		2	ambiguous	ambiguous	preferred	600.0		20.8737072001677	0.03355639998335391
1	16.65052630007267	stim	338		2	ambiguous	ambiguous	preferred	600.0		20.907263600151055	0.03368270001374185
1	16.684209000086412	stim	339		2	ambiguous	ambiguous	preferred	600.0		20.940946300164796	0.033027199911884964
1	16.717236199998297	stim	340		2	ambiguous	ambiguous	preferred	600.0		20.97397350007668	0.03380890004336834
1	16.751045100041665	stim	341		2	ambiguous	ambiguous	preferred	600.0		21.00778240012005	0.03339919995050877
1	16.784444299992174	stim	342		2	ambiguous	ambiguous	preferred	600.0		21.04118160007056	0.033962000044994056
1	16.818406300037168	stim	343		2	ambiguous	ambiguous	preferred	600.0		21.075143600115553	0.03289140004198998
1	16.851297700079158	stim	344		2	ambiguous	ambiguous	preferred	600.0		21.108035000157543	0.03341879998333752
1	16.884716500062495	stim	345		2	ambiguous	ambiguous	preferred	600.0		21.14145380014088	0.033421300002373755
1	16.91813780006487	stim	346		2	ambiguous	ambiguous	preferred	600.0		21.174875100143254	0.033785499981604517
1	16.951923300046474	stim	347		2	ambiguous	ambiguous	preferred	600.0		21.20866060012486	0.03299360000528395
1	16.984916900051758	stim	348		2	ambiguous	ambiguous	preferred	600.0		21.241654200130142	0.03361339995171875
1	17.018530300003476	stim	349		2	ambiguous	ambiguous	preferred	600.0		21.27526760008186	0.03333800006657839
1	17.051868300070055	stim	350		2	ambiguous	ambiguous	preferred	600.0		21.30860560014844	0.03360590001102537
1	17.08547420008108	stim	351		2	ambiguous	ambiguous	preferred	600.0		21.342211500159465	0.03342479991260916
1	17.11889899999369	stim	352		2	ambiguous	ambiguous	preferred	600.0		21.375636300072074	0.03311399999074638
1	17.152012999984436	stim	353		2	ambiguous	ambiguous	preferred	600.0		21.40875030006282	0.03352260007523
1	17.185535600059666	stim	354		2	ambiguous	ambiguous	preferred	600.0		21.44227290013805	0.033455600030720234
1	17.218991200090386	stim	355		2	ambiguous	ambiguous	preferred	600.0		21.47572850016877	0.03336509992368519
1	17.25235630001407	stim	356		2	ambiguous	ambiguous	preferred	600.0		21.509093600092456	0.033561900025233626
1	17.285918200039305	stim	357		2	ambiguous	ambiguous	preferred	600.0		21.54265550011769	0.03333470004145056
1	17.319252900080755	stim	358		2	ambiguous	ambiguous	preferred	600.0		21.57599020015914	0.033286399906501174
1	17.352539299987257	stim	359		2	ambiguous	ambiguous	preferred	600.0		21.60927660006564	0.033474900061264634
1	17.38601420004852	stim	360		2	ambiguous	ambiguous	preferred	600.0		21.642751500126906	0.03333559993188828
1	17.41934979998041	stim	361		2	ambiguous	ambiguous	preferred	600.0		21.676087100058794	0.033615600084885955
1	17.452965400065295	stim	362		2	ambiguous	ambiguous	preferred	600.0		21.70970270014368	0.033588799997232854
1	17.48655420006253	stim	363		2	ambiguous	ambiguous	preferred	600.0		21.743291500140913	0.033029899932444096
1	17.519584099994972	stim	364		2	ambiguous	ambiguous	preferred	600.0		21.776321400073357	0.033411200041882694
1	17.552995300036855	stim	365		2	ambiguous	ambiguous	preferred	600.0		21.80973260011524	0.03369489999022335
1	17.58669020002708	stim	366		2	ambiguous	ambiguous	preferred	600.0		21.843427500105463	0.033204799983650446
1	17.61989500001073	stim	367		2	ambiguous	ambiguous	preferred	600.0		21.876632300089113	0.033492600079625845
1	17.653387600090355	stim	368		2	ambiguous	ambiguous	preferred	600.0		21.91012490016874	0.033287899917922914
1	17.686675500008278	stim	369		2	ambiguous	ambiguous	preferred	600.0		21.943412800086662	0.033568000071682036
1	17.72024350007996	stim	370		2	ambiguous	ambiguous	preferred	600.0		21.976980800158344	0.03311640000902116
1	17.75335990008898	stim	371		2	ambiguous	ambiguous	preferred	600.0		22.010097200167365	0.03322369989473373
1	17.786583599983715	stim	372		2	ambiguous	ambiguous	preferred	600.0		22.0433209000621	0.03359290002845228
1	17.820176500012167	stim	373		2	ambiguous	ambiguous	preferred	600.0		22.07691380009055	0.03321020002476871
1	17.853386700036936	stim	374		2	ambiguous	ambiguous	preferred	600.0		22.11012400011532	0.033471900038421154
1	17.886858600075357	stim	375		2	ambiguous	ambiguous	preferred	600.0		22.14359590015374	0.03343999991193414
1	17.92029859998729	stim	376		2	ambiguous	ambiguous	preferred	600.0		22.177035900065675	0.033196100033819675
1	17.95349470002111	stim	377		2	ambiguous	ambiguous	preferred	600.0		22.210232000099495	0.0332860000198707
1	17.98678070004098	stim	378		2	ambiguous	ambiguous	preferred	600.0		22.243518000119366	0.03335929999593645
1	18.020140000036918	stim	379		2	ambiguous	ambiguous	preferred	600.0		22.276877300115302	0.03343049995601177
1	18.05357049999293	stim	380		2	ambiguous	ambiguous	preferred	600.0		22.310307800071314	0.03363070008344948
1	18.08720120007638	stim	381		2	ambiguous	ambiguous	preferred	600.0		22.343938500154763	0.03355499997269362
1	18.120756200049073	stim	382		2	ambiguous	ambiguous	preferred	600.0		22.377493500127457	0.033560800016857684
1	18.15431700006593	stim	383		2	ambiguous	ambiguous	preferred	600.0		22.411054300144315	0.03337319998536259
1	18.187690200051293	stim	384		2	ambiguous	ambiguous	preferred	600.0		22.444427500129677	0.033299700007773936
1	18.220989900059067	stim	385		2	ambiguous	ambiguous	preferred	600.0		22.47772720013745	0.03330319991800934
1	18.254293099977076	stim	386		2	ambiguous	ambiguous	preferred	600.0		22.51103040005546	0.03354500001296401
1	18.28783809999004	stim	387		2	ambiguous	ambiguous	preferred	600.0		22.544575400068425	0.03418690001126379
1	18.322025000001304	stim	388		2	ambiguous	ambiguous	preferred	600.0		22.57876230007969	0.033140000072307885
1	18.35516500007361	stim	389		2	ambiguous	ambiguous	preferred	600.0		22.611902300151996	0.033290999941527843
1	18.38845600001514	stim	390		2	ambiguous	ambiguous	preferred	600.0		22.645193300093524	0.03367290005553514
1	18.422128900070675	stim	391		2	ambiguous	ambiguous	preferred	600.0		22.67886620014906	0.033358999993652105
1	18.455487900064327	stim	392		2	ambiguous	ambiguous	preferred	600.0		22.71222520014271	0.03341249993536621
1	18.488900399999693	stim	393		2	ambiguous	ambiguous	preferred	600.0		22.745637700078078	0.033578500035218894
1	18.522478900034912	stim	394		2	ambiguous	ambiguous	preferred	600.0		22.779216200113297	0.03341050003655255
1	18.555889400071464	stim	395		2	ambiguous	ambiguous	preferred	600.0		22.81262670014985	0.03342599992174655
1	18.58931539999321	stim	396		2	ambiguous	ambiguous	preferred	600.0		22.846052700071596	0.033486600033938885
1	18.62280200002715	stim	397		2	ambiguous	ambiguous	preferred	600.0		22.879539300105534	0.033253800007514656
1	18.656055800034665	stim	398		2	ambiguous	ambiguous	preferred	600.0		22.91279310011305	0.033492299960926175
1	18.68954809999559	stim	399		2	ambiguous	ambiguous	preferred	600.0		22.946285400073975	0.03341070003807545
1	18.722958800033666	stim	400		2	ambiguous	ambiguous	preferred	600.0		22.97969610011205	0.03356600005645305
1	18.75652480009012	stim	401		2	ambiguous	ambiguous	preferred	600.0		23.013262100168504	0.033519099932163954
1	18.790043900022283	stim	402		2	ambiguous	ambiguous	preferred	600.0		23.046781200100668	0.03352850000374019
1	18.823572400026023	stim	403		2	ambiguous	ambiguous	preferred	600.0		23.080309700104408	0.03355649998411536
1	18.85712890001014	stim	404		2	ambiguous	ambiguous	preferred	600.0		23.113866200088523	0.03360319999046624
1	18.890732100000605	stim	405		2	ambiguous	ambiguous	preferred	600.0		23.14746940007899	0.03349810000509024
1	18.924230200005695	stim	406		2	ambiguous	ambiguous	preferred	600.0		23.18096750008408	0.033654000028036535
1	18.95788420003373	stim	407		2	ambiguous	ambiguous	preferred	600.0		23.214621500112116	0.03309269994497299
1	18.990976899978705	stim	408		2	ambiguous	ambiguous	preferred	600.0		23.24771420005709	0.033396100043319166
1	19.024373000022024	stim	409		2	ambiguous	ambiguous	preferred	600.0		23.28111030010041	0.033689800067804754
1	19.05806280008983	stim	410		2	ambiguous	ambiguous	preferred	600.0		23.314800100168213	0.03324209991842508
1	19.091304900008254	stim	411		2	ambiguous	ambiguous	preferred	600.0		23.34804220008664	0.03345970006193966
1	19.124764600070193	stim	412		2	ambiguous	ambiguous	preferred	600.0		23.381501900148578	0.033206299995072186
1	19.157970900065266	stim	413		2	ambiguous	ambiguous	preferred	600.0		23.41470820014365	0.03355179994832724
1	19.191522700013593	stim	414		2	ambiguous	ambiguous	preferred	600.0		23.448260000091977	0.03328430000692606
1	19.22480700002052	stim	415		2	ambiguous	ambiguous	preferred	600.0		23.481544300098903	0.03333610005211085
1	19.25814310007263	stim	416		2	ambiguous	ambiguous	preferred	600.0		23.514880400151014	0.033602099982090294
1	19.29174520005472	stim	417		2	ambiguous	ambiguous	preferred	600.0		23.548482500133105	0.03327669994905591
1	19.325021900003776	stim	418		2	ambiguous	ambiguous	preferred	600.0		23.58175920008216	0.03349060006439686
1	19.358512500068173	stim	419		2	ambiguous	ambiguous	preferred	600.0		23.615249800146557	0.03322929993737489
1	19.391741800005548	stim	420		2	ambiguous	ambiguous	preferred	600.0		23.648479100083932	0.033522300072945654
1	19.425264100078493	stim	421		2	ambiguous	ambiguous	preferred	600.0		23.682001400156878	0.03376969997771084
1	19.459033800056204	stim	422		2	ambiguous	ambiguous	preferred	600.0		23.71577110013459	0.03322370001114905
1	19.492257500067353	stim	423		2	ambiguous	ambiguous	preferred	600.0		23.748994800145738	0.03342479991260916
1	19.525682299979962	stim	424		2	ambiguous	ambiguous	preferred	600.0		23.782419600058347	0.03336780006065965
1	19.559050100040622	stim	425		2	ambiguous	ambiguous	preferred	600.0		23.815787400119007	0.03449069999624044
1	19.593540800036862	stim	426		2	ambiguous	ambiguous	preferred	600.0		23.850278100115247	0.04881940002087504
1	19.642360200057738	stim	427		2	ambiguous	ambiguous	preferred	600.0		23.899097500136122	0.03347569995094091
1	19.67583590000868	stim	428		2	ambiguous	ambiguous	preferred	600.0		23.932573200087063	0.03367929998785257
1	19.70951519999653	stim	429		2	ambiguous	ambiguous	preferred	600.0		23.966252500074916	0.03279399999883026
1	19.74230919999536	stim	430		2	ambiguous	ambiguous	preferred	600.0		23.999046500073746	0.03379400004632771
1	19.77610320004169	stim	431		2	ambiguous	ambiguous	preferred	600.0		24.032840500120074	0.033788500004448
1	19.809891700046137	stim	432		2	ambiguous	ambiguous	preferred	600.0		24.06662900012452	0.03323359997011721
1	19.843125300016254	stim	433		2	ambiguous	ambiguous	preferred	600.0		24.09986260009464	0.033832999994046986
1	19.8769583000103	stim	434		2	ambiguous	ambiguous	preferred	600.0		24.133695600088686	0.03387569996993989
1	19.91083399998024	stim	435		2	ambiguous	ambiguous	preferred	600.0		24.167571300058626	0.033827200066298246
1	19.94466120004654	stim	436		2	ambiguous	ambiguous	preferred	600.0		24.201398500124924	0.03389750001952052
1	19.97855870006606	stim	437		2	ambiguous	ambiguous	preferred	600.0		24.235296000144444	0.049463999923318624
1	20.02802269998938	stim	438		2	ambiguous	ambiguous	preferred	600.0		24.284760000067763	0.03337580000516027
1	20.06139849999454	stim	439		2	ambiguous	ambiguous	preferred	600.0		24.318135800072923	0.03381729999091476
1	20.095215799985453	stim	440		2	ambiguous	ambiguous	preferred	600.0		24.351953100063838	0.03348710003774613
1	20.1287029000232	stim	441		2	ambiguous	ambiguous	preferred	600.0		24.385440200101584	0.033745900029316545
1	20.162448800052516	stim	442		2	ambiguous	ambiguous	preferred	600.0		24.4191861001309	0.03338619996793568
1	20.195835000020452	stim	443		2	ambiguous	ambiguous	preferred	600.0		24.452572300098836	0.03359710006043315
1	20.229432100080885	stim	444		2	ambiguous	ambiguous	preferred	600.0		24.48616940015927	0.0333600000012666
1	20.26279210008215	stim	445		2	ambiguous	ambiguous	preferred	600.0		24.519529400160536	0.0333907000022009
1	20.296182800084352	stim	446		2	ambiguous	ambiguous	preferred	600.0		24.552920100162737	0.033269799896515906
1	20.32945259998087	stim	447		2	ambiguous	ambiguous	preferred	600.0		24.586189900059253	0.0334220000077039
1	20.362874599988572	stim	448		2	ambiguous	ambiguous	preferred	600.0		24.619611900066957	0.033907300094142556
1	20.396781900082715	stim	449		2	ambiguous	ambiguous	preferred	600.0		24.6535192001611	0.04944209998939186
1	20.446224000072107	stim	450		2	ambiguous	ambiguous	preferred	600.0		24.70296130015049	0.03370069991797209
1	20.47992469999008	stim	451		2	ambiguous	ambiguous	preferred	600.0		24.736662000068463	0.035631900071166456
1	20.515556600061245	stim	452		2	ambiguous	ambiguous	preferred	600.0		24.77229390013963	0.050200499943457544
1	20.565757100004703	stim	453		2	ambiguous	ambiguous	preferred	600.0		24.822494400083087	0.050062700058333576
1	20.615819800063036	stim	454		2	ambiguous	ambiguous	preferred	600.0		24.87255710014142	0.03404129995033145
1	20.649861100013368	stim	455		2	ambiguous	ambiguous	preferred	600.0		24.906598400091752	0.04983130004256964
1	20.699692400055937	stim	456		2	ambiguous	ambiguous	preferred	600.0		24.956429700134322	0.0329314999980852
1	20.732623900054023	stim	457		2	ambiguous	ambiguous	preferred	600.0		24.989361200132407	0.0497672000201419
1	20.782391100074165	stim	458		2	ambiguous	ambiguous	preferred	600.0		25.03912840015255	0.03354239999316633
1	20.81593350006733	stim	459		2	ambiguous	ambiguous	preferred	600.0		25.072670800145715	0.03330969996750355
1	20.849243200034834	stim	460		2	ambiguous	ambiguous	preferred	600.0		25.10598050011322	0.033734100055880845
1	20.882977300090715	stim	461		2	ambiguous	ambiguous	preferred	600.0		25.1397146001691	0.033635899890214205
1	20.91661319998093	stim	462		2	ambiguous	ambiguous	preferred	600.0		25.173350500059314	0.03233780001755804
1	20.948950999998488	stim	463		2	ambiguous	ambiguous	preferred	600.0		25.205688300076872	0.033502700040116906
1	20.982453700038604	stim	464		2	ambiguous	ambiguous	preferred	600.0		25.23919100011699	0.050944400019943714
1	21.033398100058548	stim	465		2	ambiguous	ambiguous	preferred	600.0		25.290135400136933	0.03238540003076196
1	21.06578350008931	stim	466		2	ambiguous	ambiguous	preferred	600.0		25.322520800167695	0.03326659998856485
1	21.099050100077875	stim	467		2	ambiguous	ambiguous	preferred	600.0		25.35578740015626	0.03441769990604371
1	21.13346779998392	stim	468		2	ambiguous	ambiguous	preferred	600.0		25.390205100062303	0.03383660002145916
1	21.167304400005378	stim	469		2	ambiguous	ambiguous	preferred	600.0		25.424041700083762	0.03213890001643449
1	21.199443300021812	stim	470		2	ambiguous	ambiguous	preferred	600.0		25.456180600100197	0.033225700026378036
1	21.23266900004819	stim	471		2	ambiguous	ambiguous	preferred	600.0		25.489406300126575	0.03385999996680766
1	21.266529000014998	stim	472		2	ambiguous	ambiguous	preferred	600.0		25.523266300093383	0.03380710002966225
1	21.30033610004466	stim	473		2	ambiguous	ambiguous	preferred	600.0		25.557073400123045	0.03336909995414317
1	21.333705199998803	stim	474		2	ambiguous	ambiguous	preferred	600.0		25.590442500077188	0.03356470004655421
1	21.367269900045358	stim	475		2	ambiguous	ambiguous	preferred	600.0		25.624007200123742	0.03346319997217506
1	21.400733100017533	stim	476		2	ambiguous	ambiguous	preferred	600.0		25.657470400095917	0.03352020005695522
1	21.434253300074488	stim	477		2	ambiguous	ambiguous	preferred	600.0		25.690990600152873	0.03349429997615516
1	21.467747600050643	stim	478		2	ambiguous	ambiguous	preferred	600.0		25.724484900129028	0.033257100032642484
1	21.501004700083286	stim	479		2	ambiguous	ambiguous	preferred	600.0		25.75774200016167	0.033118799910880625
1	21.534123499994166	stim	480		2	ambiguous	ambiguous	preferred	600.0		25.79086080007255	0.0333482000278309
1	21.567471700021997	stim	481		2	ambiguous	ambiguous	preferred	600.0		25.82420900010038	0.03355960000772029
1	21.601031300029717	stim	482		2	ambiguous	ambiguous	preferred	600.0		25.857768600108102	0.033449499984271824
1	21.63448080001399	stim	483		2	ambiguous	ambiguous	preferred	600.0		25.891218100092374	0.033473200048319995
1	21.66795400006231	stim	484		2	ambiguous	ambiguous	preferred	600.0		25.924691300140694	0.033151499927043915
1	21.701105499989353	stim	485		2	ambiguous	ambiguous	preferred	600.0		25.957842800067738	0.03341800009366125
1	21.734523500083014	stim	486		2	ambiguous	ambiguous	preferred	600.0		25.9912608001614	0.0334030999802053
1	21.76792660006322	stim	487		2	ambiguous	ambiguous	preferred	600.0		26.024663900141604	0.03328849992249161
1	21.80121509998571	stim	488		2	ambiguous	ambiguous	preferred	600.0		26.057952400064096	0.03441580000799149
1	21.835630899993703	stim	489		2	ambiguous	ambiguous	preferred	600.0		26.092368200072087	0.0321950000943616
1	21.867825900088064	stim	490		2	ambiguous	ambiguous	preferred	600.0		26.12456320016645	0.03329149994533509
1	21.9011174000334	stim	491		2	ambiguous	ambiguous	preferred	600.0		26.157854700111784	0.03362530004233122
1	21.93474270007573	stim	492		2	ambiguous	ambiguous	preferred	600.0		26.191480000154115	0.03356219991110265
1	21.968304899986833	stim	493		2	ambiguous	ambiguous	preferred	600.0		26.225042200065218	0.034099800046533346
1	22.002404700033367	stim	494		2	ambiguous	ambiguous	preferred	600.0		26.25914200011175	0.03344439994543791
1	22.035849099978805	stim	495		2	ambiguous	ambiguous	preferred	600.0		26.29258640005719	0.03381740010809153
1	22.069666500086896	stim	496		2	ambiguous	ambiguous	preferred	600.0		26.32640380016528	0.03324609994888306
1	22.10291260003578	stim	497		2	ambiguous	ambiguous	preferred	600.0		26.359649900114164	0.033778500044718385
1	22.136691100080498	stim	498		2	ambiguous	ambiguous	preferred	600.0		26.393428400158882	0.033342899987474084
1	22.17003400006797	stim	499		2	ambiguous	ambiguous	preferred	600.0		26.426771300146356	0.033529500011354685
1	22.203563500079326	stim	500		2	ambiguous	ambiguous	preferred	600.0		26.46030080015771	0.03324259992223233
1	22.23680610000156	stim	501		2	ambiguous	ambiguous	preferred	600.0		26.493543400079943	0.03345800004899502
1	22.270264100050554	stim	502		2	ambiguous	ambiguous	preferred	600.0		26.52700140012894	0.033237800002098083
1	22.30350190005265	stim	503		2	ambiguous	ambiguous	preferred	600.0		26.560239200131036	0.03325169999152422
1	22.336753600044176	stim	504		2	ambiguous	ambiguous	preferred	600.0		26.59349090012256	0.03351340000517666
1	22.370267000049353	stim	505		2	ambiguous	ambiguous	preferred	600.0		26.627004300127737	0.03313729993533343
1	22.403404299984686	stim	506		2	ambiguous	ambiguous	preferred	600.0		26.66014160006307	0.03350210003554821
1	22.436906400020234	stim	507		2	ambiguous	ambiguous	preferred	600.0		26.69364370009862	0.03343409998342395
1	22.47034050000366	stim	508		2	ambiguous	ambiguous	preferred	600.0		26.727077800082043	0.0332666999893263
1	22.503607199992985	stim	509		2	ambiguous	ambiguous	preferred	600.0		26.76034450007137	0.03325580002274364
1	22.536863000015728	stim	510		2	ambiguous	ambiguous	preferred	600.0		26.793600300094113	0.03369790001306683
1	22.570560900028795	stim	511		2	ambiguous	ambiguous	preferred	600.0		26.82729820010718	0.03333500004373491
1	22.60389590007253	stim	512		2	ambiguous	ambiguous	preferred	600.0		26.860633200150914	0.05031979992054403
1	22.654215699993074	stim	513		2	ambiguous	ambiguous	preferred	600.0		26.91095300007146	0.03341660008300096
1	22.687632300076075	stim	514		2	ambiguous	ambiguous	preferred	600.0		26.94436960015446	0.03397340001538396
1	22.72160570009146	stim	515		2	ambiguous	ambiguous	preferred	600.0		26.978343000169843	0.03291119995992631
1	22.754516900051385	stim	516		2	ambiguous	ambiguous	preferred	600.0		27.01125420012977	0.03339250001590699
1	22.787909400067292	stim	517		2	ambiguous	ambiguous	preferred	600.0		27.044646700145677	0.03334770002402365
1	22.821257100091316	stim	518		2	ambiguous	ambiguous	preferred	600.0		27.0779944001697	0.033461199956946075
1	22.854718300048262	stim	519		2	ambiguous	ambiguous	preferred	600.0		27.111455600126646	0.03321439994033426
1	22.887932699988596	stim	520		2	ambiguous	ambiguous	preferred	600.0		27.14467000006698	0.03344280004967004
1	22.921375500038266	stim	521		2	ambiguous	ambiguous	preferred	600.0		27.17811280011665	0.03335969999898225
1	22.95473520003725	stim	522		2	ambiguous	ambiguous	preferred	600.0		27.211472500115633	0.03366029995959252
1	22.98839549999684	stim	523		2	ambiguous	ambiguous	preferred	600.0		27.245132800075226	0.03345650003757328
1	23.021852000034414	stim	524		2	ambiguous	ambiguous	preferred	600.0		27.2785893001128	0.03348700003698468
1	23.0553390000714	stim	525		2	ambiguous	ambiguous	preferred	600.0		27.312076300149783	0.03332669998053461
1	23.088665700051934	stim	526		2	ambiguous	ambiguous	preferred	600.0		27.345403000130318	0.0335579999955371
1	23.12222370004747	stim	527		2	ambiguous	ambiguous	preferred	600.0		27.378961000125855	0.03328550001606345
1	23.155509200063534	stim	528		2	ambiguous	ambiguous	preferred	600.0		27.41224650014192	0.033286500023677945
1	23.188795700087212	stim	529		2	ambiguous	ambiguous	preferred	600.0		27.445533000165597	0.03361869999207556
1	23.222414400079288	stim	530		2	ambiguous	ambiguous	preferred	600.0		27.479151700157672	0.03348999994341284
1	23.2559044000227	stim	531		2	ambiguous	ambiguous	preferred	600.0		27.512641700101085	0.03355100005865097
1	23.28945540008135	stim	532		2	ambiguous	ambiguous	preferred	600.0		27.546192700159736	0.03332899999804795
1	23.3227844000794	stim	533		2	ambiguous	ambiguous	preferred	600.0		27.579521700157784	0.03347359993495047
1	23.35625800001435	stim	534		2	ambiguous	ambiguous	preferred	600.0		27.612995300092734	0.03326060005929321
1	23.389518600073643	stim	535		2	ambiguous	ambiguous	preferred	600.0		27.646255900152028	0.03356030001305044
1	23.423078900086693	stim	536		2	ambiguous	ambiguous	preferred	600.0		27.679816200165078	0.03342189989052713
1	23.45650079997722	stim	537		2	ambiguous	ambiguous	preferred	600.0		27.713238100055605	0.03343290009070188
1	23.489933700067922	stim	538		2	ambiguous	ambiguous	preferred	600.0		27.746671000146307	0.033441699924878776
1	23.5233753999928	stim	539		2	ambiguous	ambiguous	preferred	600.0		27.780112700071186	0.03315290005411953
1	23.55652830004692	stim	540		2	ambiguous	ambiguous	preferred	600.0		27.813265600125305	0.03331339999567717
1	23.589841700042598	stim	541		2	ambiguous	ambiguous	preferred	600.0		27.846579000120983	0.03357490000780672
1	23.623416600050405	stim	542		2	ambiguous	ambiguous	preferred	600.0		27.88015390012879	0.033231499954126775
1	23.65664810000453	stim	543		2	ambiguous	ambiguous	preferred	600.0		27.913385400082916	0.033488200046122074
1	23.690136300050654	stim	544		2	ambiguous	ambiguous	preferred	600.0		27.946873600129038	0.03349920001346618
1	23.72363550006412	stim	545		2	ambiguous	ambiguous	preferred	600.0		27.980372800142504	0.0333837999496609
1	23.75701930001378	stim	546		2	ambiguous	ambiguous	preferred	600.0		28.013756600092165	0.03338360006455332
1	23.790402900078334	stim	547		2	ambiguous	ambiguous	preferred	600.0		28.04714020015672	0.03340879990719259
1	23.823811699985527	stim	548		2	ambiguous	ambiguous	preferred	600.0		28.08054900006391	0.03327560005709529
1	23.857087300042622	stim	549		2	ambiguous	ambiguous	preferred	600.0		28.113824600121006	0.03384139994159341
1	23.890928699984215	stim	550		2	ambiguous	ambiguous	preferred	600.0		28.1476660000626	0.03330670006107539
1	23.92423540004529	stim	551		2	ambiguous	ambiguous	preferred	600.0		28.180972700123675	0.03335669997613877
1	23.95759210002143	stim	552		2	ambiguous	ambiguous	preferred	600.0		28.214329400099814	0.03367989999242127
1	23.99127200001385	stim	553		2	ambiguous	ambiguous	preferred	600.0		28.248009300092235	0.03332310006953776
1	24.02459510008339	stim	554		2	ambiguous	ambiguous	preferred	600.0		28.281332400161773	0.03346189996227622
1	24.058057000045665	stim	555		2	ambiguous	ambiguous	preferred	600.0		28.31479430012405	0.03354490001220256
1	24.091601900057867	stim	556		2	ambiguous	ambiguous	preferred	600.0		28.34833920013625	0.03351199999451637
1	24.125113900052384	stim	557		2	ambiguous	ambiguous	preferred	600.0		28.381851200130768	0.03323129995260388
1	24.158345200004987	stim	558		2	ambiguous	ambiguous	preferred	600.0		28.415082500083372	0.03302850003819913
1	24.191373700043187	stim	559		2	ambiguous	ambiguous	preferred	600.0		28.44811100012157	0.033471900038421154
1	24.224845600081608	stim	560		2	ambiguous	ambiguous	preferred	600.0		28.481582900159992	0.03337479999754578
1	24.258220400079153	stim	561		2	ambiguous	ambiguous	preferred	600.0		28.514957700157538	0.03317849989980459
1	24.291398899978958	stim	562		2	ambiguous	ambiguous	preferred	600.0		28.548136200057343	0.03354780003428459
1	24.324946700013243	stim	563		2	ambiguous	ambiguous	preferred	600.0		28.581684000091627	0.03321350004989654
1	24.35816020006314	stim	564		2	ambiguous	ambiguous	preferred	600.0		28.614897500141524	0.03364369994960725
1	24.391803900012746	stim	565		2	ambiguous	ambiguous	preferred	600.0		28.64854120009113	0.03334770002402365
1	24.42515160003677	stim	566		2	ambiguous	ambiguous	preferred	600.0		28.681888900115155	0.03336430003400892
1	24.45851590007078	stim	567		2	ambiguous	ambiguous	preferred	600.0		28.715253200149164	0.0334650999866426
1	24.49198100005742	stim	568		2	ambiguous	ambiguous	preferred	600.0		28.748718300135806	0.033696900005452335
1	24.525677900062874	stim	569		2	ambiguous	ambiguous	preferred	600.0		28.78241520014126	0.03329930000472814
1	24.558977200067602	stim	570		2	ambiguous	ambiguous	preferred	600.0		28.815714500145987	0.033495199983008206
1	24.59247240005061	stim	571		2	ambiguous	ambiguous	preferred	600.0		28.849209700128995	0.03324110002722591
1	24.625713500077836	stim	572		2	ambiguous	ambiguous	preferred	600.0		28.88245080015622	0.033483600011095405
1	24.65919710008893	stim	573		2	ambiguous	ambiguous	preferred	600.0		28.915934400167316	0.03342899994459003
1	24.69262610003352	stim	574		2	ambiguous	ambiguous	preferred	600.0		28.949363400111906	0.03361719998065382
1	24.726243300014175	stim	575		2	ambiguous	ambiguous	preferred	600.0		28.98298060009256	0.03339510003570467
1	24.75963840004988	stim	576		2	ambiguous	ambiguous	preferred	600.0		29.016375700128265	0.0333171000238508
1	24.79295550007373	stim	577		2	ambiguous	ambiguous	preferred	600.0		29.049692800152116	0.033339799963869154
1	24.8262953000376	stim	578		2	ambiguous	ambiguous	preferred	600.0		29.083032600115985	0.03333889995701611
1	24.859634199994616	stim	579		2	ambiguous	ambiguous	preferred	600.0		29.116371500073	0.033752000075764954
1	24.89338620007038	stim	580		2	ambiguous	ambiguous	preferred	600.0		29.150123500148766	0.03404259996023029
1	24.92742880003061	stim	581		2	ambiguous	ambiguous	preferred	600.0		29.184166100108996	0.033652400015853345
1	24.961081200046465	stim	582		2	ambiguous	ambiguous	preferred	600.0		29.21781850012485	0.0330250000115484
1	24.994106200058013	stim	583		2	ambiguous	ambiguous	preferred	600.0		29.250843500136398	0.03351039998233318
1	25.027616600040346	stim	584		2	ambiguous	ambiguous	preferred	600.0		29.28435390011873	0.03344140003900975
1	25.061058000079356	stim	585		2	ambiguous	ambiguous	preferred	600.0		29.31779530015774	0.03322479990310967
1	25.094282799982466	stim	586		2	ambiguous	ambiguous	preferred	600.0		29.35102010006085	0.03344340005423874
1	25.127726200036705	stim	587		2	ambiguous	ambiguous	preferred	600.0		29.38446350011509	0.03328610002063215
1	25.161012300057337	stim	588		2	ambiguous	ambiguous	preferred	600.0		29.41774960013572	0.03349039994645864
1	25.194502700003795	stim	589		2	ambiguous	ambiguous	preferred	600.0		29.45124000008218	0.03361759998369962
1	25.228120299987495	stim	590		2	ambiguous	ambiguous	preferred	600.0		29.48485760006588	0.033502900041639805
1	25.261623200029135	stim	591		2	ambiguous	ambiguous	preferred	600.0		29.51836050010752	0.033222700003534555
1	25.29484590003267	stim	592		2	ambiguous	ambiguous	preferred	600.0		29.551583200111054	0.03354029997717589
1	25.328386200009845	stim	593		2	ambiguous	ambiguous	preferred	600.0		29.58512350008823	0.03384569997433573
1	25.36223189998418	stim	594		2	ambiguous	ambiguous	preferred	600.0		29.618969200062566	0.04958480002824217
1	25.411816700012423	stim	595		2	ambiguous	ambiguous	preferred	600.0		29.668554000090808	0.03327430004719645
1	25.44509100005962	stim	596		2	ambiguous	ambiguous	preferred	600.0		29.701828300138004	0.03339959995355457
1	25.478490600013174	stim	597		2	ambiguous	ambiguous	preferred	600.0		29.73522790009156	0.03373060002923012
1	25.512221200042404	stim	598		2	ambiguous	ambiguous	preferred	600.0		29.76895850012079	0.03363880002871156
1	25.545860000071116	stim	599		2	ambiguous	ambiguous	preferred	600.0		29.8025973001495	0.03362759994342923
0	25.579487600014545	stim	0		0	break	break	preferred	1.0		29.83622490009293	0.012220000033266842
2	25.591707600047812	stim	0		2	unambiguous	left	preferred	70.0		29.848444900126196	0.03772479994222522
2	25.629432399990037	stim	1		2	unambiguous	left	preferred	70.0		29.88616970006842	0.03361010004300624
2	25.663042500033043	stim	2		2	unambiguous	left	preferred	70.0		29.919779800111428	0.03562930005136877
2	25.698671800084412	stim	3		2	unambiguous	left	preferred	70.0		29.955409100162797	0.031213399954140186
2	25.729885200038552	stim	4		2	unambiguous	left	preferred	70.0		29.986622500116937	0.03317419998347759
2	25.76305940002203	stim	5		2	unambiguous	left	preferred	70.0		30.019796700100414	0.05215300002600998
2	25.81521240004804	stim	6		2	unambiguous	left	preferred	70.0		30.071949700126424	0.047912999987602234
2	25.863125400035642	stim	7		2	unambiguous	left	preferred	70.0		30.119862700114027	0.03345139999873936
2	25.89657680003438	stim	8		2	unambiguous	left	preferred	70.0		30.153314100112766	0.03323850000742823
2	25.92981530004181	stim	9		2	unambiguous	left	preferred	70.0		30.186552600120194	0.03366019995883107
2	25.96347550000064	stim	10		2	unambiguous	left	preferred	70.0		30.220212800079025	0.0523752000881359
2	26.015850700088777	stim	11		2	unambiguous	left	preferred	70.0		30.27258800016716	0.04999449988827109
2	26.065845199977048	stim	12		2	unambiguous	left	preferred	70.0		30.322582500055432	0.03325300000142306
2	26.09909819997847	stim	13		2	unambiguous	left	preferred	70.0		30.355835500056855	0.03342400002293289
2	26.132522200001404	stim	14		2	unambiguous	left	preferred	70.0		30.38925950007979	0.05014910001773387
2	26.182671300019138	stim	15		2	unambiguous	left	preferred	70.0		30.439408600097522	0.033213800052180886
2	26.21588510007132	stim	16		2	unambiguous	left	preferred	70.0		30.472622400149703	0.033345700008794665
2	26.249230800080113	stim	17		2	unambiguous	left	preferred	70.0		30.505968100158498	0.03320149995852262
2	26.282432300038636	stim	18		2	unambiguous	left	preferred	70.0		30.53916960011702	0.04988740000408143
2	26.332319700042717	stim	19		2	unambiguous	left	preferred	70.0		30.5890570001211	0.0509199999505654
2	26.383239699993283	stim	20		2	unambiguous	left	preferred	70.0		30.639977000071667	0.049475900013931096
2	26.432715600007214	stim	21		2	unambiguous	left	preferred	70.0		30.6894529000856	0.03387510008178651
2	26.466590700089	stim	22		2	unambiguous	left	preferred	70.0		30.723328000167385	0.03342619992326945
2	26.50001690001227	stim	23		2	unambiguous	left	preferred	70.0		30.756754200090654	0.033421400003135204
2	26.533438300015405	stim	24		2	unambiguous	left	preferred	70.0		30.79017560009379	0.0323243000311777
2	26.565762600046583	stim	25		2	unambiguous	left	preferred	70.0		30.822499900124967	0.03412700002081692
2	26.5998896000674	stim	26		2	unambiguous	left	preferred	70.0		30.856626900145784	0.03341929998714477
2	26.633308900054544	stim	27		2	unambiguous	left	preferred	70.0		30.89004620013293	0.03309889999218285
2	26.666407800046727	stim	28		2	unambiguous	left	preferred	70.0		30.92314510012511	0.03390369995031506
2	26.700311499997042	stim	29		2	unambiguous	left	preferred	70.0		30.957048800075427	0.03325009997934103
2	26.733561599976383	stim	30		2	unambiguous	left	preferred	70.0		30.990298900054768	0.03327710006851703
2	26.7668387000449	stim	31		2	unambiguous	left	preferred	70.0		31.023576000123285	0.0337805999442935
2	26.800619299989194	stim	32		2	unambiguous	left	preferred	70.0		31.05735660006758	0.0328888000221923
2	26.833508100011386	stim	33		2	unambiguous	left	preferred	70.0		31.09024540008977	0.03358070005197078
2	26.867088800063357	stim	34		2	unambiguous	left	preferred	70.0		31.12382610014174	0.033357499982230365
2	26.900446300045587	stim	35		2	unambiguous	left	preferred	70.0		31.15718360012397	0.033489099936559796
2	26.933935399982147	stim	36		2	unambiguous	left	preferred	70.0		31.19067270006053	0.033438900019973516
2	26.96737430000212	stim	37		2	unambiguous	left	preferred	70.0		31.224111600080505	0.03366070007905364
2	27.001035000081174	stim	38		2	unambiguous	left	preferred	70.0		31.25777230015956	0.03309409995563328
2	27.034129100036807	stim	39		2	unambiguous	left	preferred	70.0		31.290866400115192	0.03331520000938326
2	27.06744430004619	stim	40		2	unambiguous	left	preferred	70.0		31.324181600124575	0.03317860001698136
2	27.100622900063172	stim	41		2	unambiguous	left	preferred	70.0		31.357360200141557	0.0336941999848932
2	27.134317100048065	stim	42		2	unambiguous	left	preferred	70.0		31.39105440012645	0.03312459995504469
2	27.16744170000311	stim	43		2	unambiguous	left	preferred	70.0		31.424179000081494	0.03368600003886968
2	27.20112770004198	stim	44		2	unambiguous	left	preferred	70.0		31.457865000120364	0.033375300001353025
2	27.234503000043333	stim	45		2	unambiguous	left	preferred	70.0		31.491240300121717	0.03327090002130717
2	27.26777390006464	stim	46		2	unambiguous	left	preferred	70.0		31.524511200143024	0.03340259997639805
2	27.301176500041038	stim	47		2	unambiguous	left	preferred	70.0		31.557913800119422	0.03345470002386719
2	27.334631200064905	stim	48		2	unambiguous	left	preferred	70.0		31.59136850014329	0.033470300026237965
2	27.368101500091143	stim	49		2	unambiguous	left	preferred	70.0		31.624838800169528	0.03349409997463226
2	27.401595600065775	stim	50		2	unambiguous	left	preferred	70.0		31.65833290014416	0.03344429994467646
2	27.43503990001045	stim	51		2	unambiguous	left	preferred	70.0		31.691777200088836	0.03337940003257245
2	27.468419300043024	stim	52		2	unambiguous	left	preferred	70.0		31.72515660012141	0.03355659998487681
2	27.5019759000279	stim	53		2	unambiguous	left	preferred	70.0		31.758713200106286	0.033385499962605536
2	27.535361399990506	stim	54		2	unambiguous	left	preferred	70.0		31.79209870006889	0.033376900013536215
2	27.568738300004043	stim	55		2	unambiguous	left	preferred	70.0		31.825475600082427	0.033464099979028106
2	27.60220239998307	stim	56		2	unambiguous	left	preferred	70.0		31.858939700061455	0.03327950008679181
2	27.635481900069863	stim	57		2	unambiguous	left	preferred	70.0		31.892219200148247	0.03323039994575083
2	27.668712300015613	stim	58		2	unambiguous	left	preferred	70.0		31.925449600093998	0.03329499997198582
2	27.7020072999876	stim	59		2	unambiguous	left	preferred	70.0		31.958744600065984	0.033443500055000186
2	27.7354508000426	stim	60		2	unambiguous	left	preferred	70.0		31.992188100120984	0.03322310000658035
2	27.76867390004918	stim	61		2	unambiguous	left	preferred	70.0		32.025411200127564	0.03382769995369017
2	27.80250160000287	stim	62		2	unambiguous	left	preferred	70.0		32.059238900081255	0.03379720007069409
2	27.836298800073564	stim	63		2	unambiguous	left	preferred	70.0		32.09303610015195	0.03322029998525977
2	27.869519100058824	stim	64		2	unambiguous	left	preferred	70.0		32.12625640013721	0.03346009994857013
2	27.902979200007394	stim	65		2	unambiguous	left	preferred	70.0		32.15971650008578	0.03364899998996407
2	27.936628199997358	stim	66		2	unambiguous	left	preferred	70.0		32.19336550007574	0.033171300077810884
2	27.96979950007517	stim	67		2	unambiguous	left	preferred	70.0		32.22653680015355	0.03394639992620796
2	28.003745900001377	stim	68		2	unambiguous	left	preferred	70.0		32.26048320007976	0.03317629999946803
2	28.036922200000845	stim	69		2	unambiguous	left	preferred	70.0		32.29365950007923	0.03336250002030283
3	28.070284700021148	stim	0		2	unambiguous	right	preferred	69.0		32.32702200009953	0.033411000040359795
3	28.103695700061508	stim	1		2	unambiguous	right	preferred	69.0		32.36043300013989	0.033532299916259944
3	28.137227999977767	stim	2		2	unambiguous	right	preferred	69.0		32.39396530005615	0.03330230002757162
3	28.17053030000534	stim	3		2	unambiguous	right	preferred	69.0		32.427267600083724	0.03341170004568994
3	28.20394200005103	stim	4		2	unambiguous	right	preferred	69.0		32.460679300129414	0.033517600037157536
3	28.237459600088187	stim	5		2	unambiguous	right	preferred	69.0		32.49419690016657	0.03388079989235848
3	28.271340399980545	stim	6		2	unambiguous	right	preferred	69.0		32.52807770005893	0.03311070008203387
3	28.30445110006258	stim	7		2	unambiguous	right	preferred	69.0		32.56118840014096	0.03325630002655089
3	28.33770740008913	stim	8		2	unambiguous	right	preferred	69.0		32.594444700167514	0.033398899948224425
3	28.371106300037354	stim	9		2	unambiguous	right	preferred	69.0		32.62784360011574	0.033597399946302176
3	28.404703699983656	stim	10		2	unambiguous	right	preferred	69.0		32.66144100006204	0.03306060004979372
3	28.43776430003345	stim	11		2	unambiguous	right	preferred	69.0		32.694501600111835	0.0332862000213936
3	28.471050500054844	stim	12		2	unambiguous	right	preferred	69.0		32.72778780013323	0.03330909996293485
3	28.50435960001778	stim	13		2	unambiguous	right	preferred	69.0		32.76109690009616	0.033542699995450675
3	28.53790230001323	stim	14		2	unambiguous	right	preferred	69.0		32.794639600091614	0.03364430007059127
3	28.57154660008382	stim	15		2	unambiguous	right	preferred	69.0		32.828283900162205	0.033456699922680855
3	28.6050033000065	stim	16		2	unambiguous	right	preferred	69.0		32.861740600084886	0.03343120007775724
3	28.63843450008426	stim	17		2	unambiguous	right	preferred	69.0		32.89517180016264	0.03376309992745519
3	28.672197600011714	stim	18		2	unambiguous	right	preferred	69.0		32.9289349000901	0.033852400025352836
3	28.706050000037067	stim	19		2	unambiguous	right	preferred	69.0		32.96278730011545	0.032868599984794855
3	28.73891860002186	stim	20		2	unambiguous	right	preferred	69.0		32.995655900100246	0.03344909998122603
3	28.772367700003088	stim	21		2	unambiguous	right	preferred	69.0		33.02910500008147	0.03349409997463226
3	28.80586179997772	stim	22		2	unambiguous	right	preferred	69.0		33.062599100056104	0.03343160008080304
3	28.839293400058523	stim	23		2	unambiguous	right	preferred	69.0		33.09603070013691	0.03354919992852956
3	28.872842599987052	stim	24		2	unambiguous	right	preferred	69.0		33.12957990006544	0.03296600002795458
3	28.905808600015007	stim	25		2	unambiguous	right	preferred	69.0		33.16254590009339	0.03389760002028197
3	28.93970620003529	stim	26		2	unambiguous	right	preferred	69.0		33.19644350011367	0.03385450004134327
3	28.973560700076632	stim	27		2	unambiguous	right	preferred	69.0		33.23029800015502	0.03395189996808767
3	29.00751260004472	stim	28		2	unambiguous	right	preferred	69.0		33.264249900123104	0.033381200046278536
3	29.040893800091	stim	29		2	unambiguous	right	preferred	69.0		33.29763110016938	0.03446079988498241
3	29.07535459997598	stim	30		2	unambiguous	right	preferred	69.0		33.332091900054365	0.03286330006085336
3	29.108217900036834	stim	31		2	unambiguous	right	preferred	69.0		33.36495520011522	0.033670400036498904
3	29.141888300073333	stim	32		2	unambiguous	right	preferred	69.0		33.39862560015172	0.033437600010074675
3	29.175325900083408	stim	33		2	unambiguous	right	preferred	69.0		33.43206320016179	0.03379979997407645
3	29.209125700057484	stim	34		2	unambiguous	right	preferred	69.0		33.46586300013587	0.0332900999346748
3	29.24241579999216	stim	35		2	unambiguous	right	preferred	69.0		33.499153100070544	0.033329500001855195
3	29.275745299994014	stim	36		2	unambiguous	right	preferred	69.0		33.5324826000724	0.03331880003679544
3	29.30906410003081	stim	37		2	unambiguous	right	preferred	69.0		33.565801400109194	0.0334337999811396
3	29.34249790001195	stim	38		2	unambiguous	right	preferred	69.0		33.599235200090334	0.033414100063964725
3	29.375912000075914	stim	39		2	unambiguous	right	preferred	69.0		33.6326493001543	0.03352850000374019
3	29.409440500079654	stim	40		2	unambiguous	right	preferred	69.0		33.66617780015804	0.03338069992605597
3	29.44282120000571	stim	41		2	unambiguous	right	preferred	69.0		33.699558500084095	0.033563400036655366
3	29.476384600042365	stim	42		2	unambiguous	right	preferred	69.0		33.73312190012075	0.03342079999856651
3	29.509805400040932	stim	43		2	unambiguous	right	preferred	69.0		33.76654270011932	0.033397499937564135
3	29.543202899978496	stim	44		2	unambiguous	right	preferred	69.0		33.79994020005688	0.03346840001177043
3	29.576671299990267	stim	45		2	unambiguous	right	preferred	69.0		33.83340860006865	0.033326500095427036
3	29.609997800085694	stim	46		2	unambiguous	right	preferred	69.0		33.86673510016408	0.0335004999069497
3	29.643498299992643	stim	47		2	unambiguous	right	preferred	69.0		33.90023560007103	0.03358400007709861
3	29.677082300069742	stim	48		2	unambiguous	right	preferred	69.0		33.93381960014813	0.03376449993811548
3	29.710846800007857	stim	49		2	unambiguous	right	preferred	69.0		33.96758410008624	0.03279389999806881
3	29.743640700005926	stim	50		2	unambiguous	right	preferred	69.0		34.00037800008431	0.03366219997406006
3	29.777302899979986	stim	51		2	unambiguous	right	preferred	69.0		34.03404020005837	0.0334535000147298
3	29.810756399994716	stim	52		2	unambiguous	right	preferred	69.0		34.0674937000731	0.03349719999823719
3	29.844253599992953	stim	53		2	unambiguous	right	preferred	69.0		34.10099090007134	0.03338500007521361
3	29.877638600068167	stim	54		2	unambiguous	right	preferred	69.0		34.13437590014655	0.03344309993553907
3	29.911081700003706	stim	55		2	unambiguous	right	preferred	69.0		34.16781900008209	0.03348570002708584
3	29.94456740003079	stim	56		2	unambiguous	right	preferred	69.0		34.201304700109176	0.03347210003994405
3	29.978039500070736	stim	57		2	unambiguous	right	preferred	69.0		34.23477680014912	0.03341549995820969
3	30.011455000028946	stim	58		2	unambiguous	right	preferred	69.0		34.26819230010733	0.03324579994659871
3	30.044700799975544	stim	59		2	unambiguous	right	preferred	69.0		34.30143810005393	0.03345670003909618
3	30.07815750001464	stim	60		2	unambiguous	right	preferred	69.0		34.334894800093025	0.03358479996677488
3	30.111742299981415	stim	61		2	unambiguous	right	preferred	69.0		34.3684796000598	0.033406700007617474
3	30.145148999989033	stim	62		2	unambiguous	right	preferred	69.0		34.40188630006742	0.033443700056523085
3	30.178592700045556	stim	63		2	unambiguous	right	preferred	69.0		34.43533000012394	0.03354059997946024
3	30.212133300025016	stim	64		2	unambiguous	right	preferred	69.0		34.4688706001034	0.03352159995120019
3	30.245654899976216	stim	65		2	unambiguous	right	preferred	69.0		34.5023922000546	0.03360470000188798
3	30.279259599978104	stim	66		2	unambiguous	right	preferred	69.0		34.53599690005649	0.03312770009506494
3	30.31238730007317	stim	67		2	unambiguous	right	preferred	69.0		34.569124600151554	0.03330479993019253
3	30.34569210000336	stim	68		2	unambiguous	right	preferred	69.0		34.602429400081746	0.033256700029596686
4	30.37894880003296	stim	0		2	unambiguous	left	preferred	66.0		34.63568610011134	0.03333370003383607
4	30.412282500066794	stim	1		2	unambiguous	left	preferred	66.0		34.66901980014518	0.033369399956427515
4	30.445651900023222	stim	2		2	unambiguous	left	preferred	66.0		34.70238920010161	0.03342460002750158
4	30.479076500050724	stim	3		2	unambiguous	left	preferred	66.0		34.73581380012911	0.03349159995559603
4	30.51256810000632	stim	4		2	unambiguous	left	preferred	66.0		34.769305400084704	0.033493699971586466
4	30.546061799977906	stim	5		2	unambiguous	left	preferred	66.0		34.80279910005629	0.033258200041018426
4	30.579320000018924	stim	6		2	unambiguous	left	preferred	66.0		34.83605730009731	0.03335110004991293
4	30.612671100068837	stim	7		2	unambiguous	left	preferred	66.0		34.86940840014722	0.03332759998738766
4	30.645998700056225	stim	8		2	unambiguous	left	preferred	66.0		34.90273600013461	0.03337570000439882
4	30.679374400060624	stim	9		2	unambiguous	left	preferred	66.0		34.93611170013901	0.033556199981831014
4	30.712930600042455	stim	10		2	unambiguous	left	preferred	66.0		34.96966790012084	0.03316590003669262
4	30.746096500079148	stim	11		2	unambiguous	left	preferred	66.0		35.00283380015753	0.03540609998162836
4	30.781502600060776	stim	12		2	unambiguous	left	preferred	66.0		35.03823990013916	0.03336709993891418
4	30.81486969999969	stim	13		2	unambiguous	left	preferred	66.0		35.071607000078075	0.03138180007226765
4	30.846251500071958	stim	14		2	unambiguous	left	preferred	66.0		35.10298880015034	0.0354425999103114
4	30.88169409998227	stim	15		2	unambiguous	left	preferred	66.0		35.138431400060654	0.03349040006287396
4	30.915184500045143	stim	16		2	unambiguous	left	preferred	66.0		35.17192180012353	0.03351360000669956
4	30.948698100051843	stim	17		2	unambiguous	left	preferred	66.0		35.20543540013023	0.03311540000140667
4	30.98181350005325	stim	18		2	unambiguous	left	preferred	66.0		35.238550800131634	0.033533899928443134
4	31.015347399981692	stim	19		2	unambiguous	left	preferred	66.0		35.27208470006008	0.033174200099892914
4	31.048521600081585	stim	20		2	unambiguous	left	preferred	66.0		35.30525890015997	0.03320109995547682
4	31.081722700037062	stim	21		2	unambiguous	left	preferred	66.0		35.33846000011545	0.03331970004364848
4	31.11504240008071	stim	22		2	unambiguous	left	preferred	66.0		35.371779700159095	0.03334609989542514
4	31.148388499976136	stim	23		2	unambiguous	left	preferred	66.0		35.40512580005452	0.03317460010293871
4	31.181563100079075	stim	24		2	unambiguous	left	preferred	66.0		35.43830040015746	0.03345789993181825
4	31.215021000010893	stim	25		2	unambiguous	left	preferred	66.0		35.47175830008928	0.033283299999311566
4	31.248304300010204	stim	26		2	unambiguous	left	preferred	66.0		35.50504160008859	0.033323600073345006
4	31.28162790008355	stim	27		2	unambiguous	left	preferred	66.0		35.538365200161934	0.03412109997589141
4	31.31574900005944	stim	28		2	unambiguous	left	preferred	66.0		35.572486300137825	0.04926749994046986
4	31.36501649999991	stim	29		2	unambiguous	left	preferred	66.0		35.621753800078295	0.03336540004238486
4	31.398381900042295	stim	30		2	unambiguous	left	preferred	66.0		35.65511920012068	0.03315709996968508
4	31.43153900001198	stim	31		2	unambiguous	left	preferred	66.0		35.688276300090365	0.03347120003309101
4	31.46501020004507	stim	32		2	unambiguous	left	preferred	66.0		35.721747500123456	0.03327050001826137
4	31.498280700063333	stim	33		2	unambiguous	left	preferred	66.0		35.75501800014172	0.03346830001100898
4	31.531749000074342	stim	34		2	unambiguous	left	preferred	66.0		35.78848630015273	0.033354399958625436
4	31.565103400032967	stim	35		2	unambiguous	left	preferred	66.0		35.82184070011135	0.03346760000567883
4	31.598571000038646	stim	36		2	unambiguous	left	preferred	66.0		35.85530830011703	0.03300850000232458
4	31.63157950004097	stim	37		2	unambiguous	left	preferred	66.0		35.888316800119355	0.03356759995222092
4	31.66514709999319	stim	38		2	unambiguous	left	preferred	66.0		35.921884400071576	0.033134100027382374
4	31.698281200020574	stim	39		2	unambiguous	left	preferred	66.0		35.95501850009896	0.03330050001386553
4	31.73158170003444	stim	40		2	unambiguous	left	preferred	66.0		35.988319000112824	0.03342390002217144
4	31.76500560005661	stim	41		2	unambiguous	left	preferred	66.0		36.021742900134996	0.03328879992477596
4	31.798294399981387	stim	42		2	unambiguous	left	preferred	66.0		36.05503170005977	0.033522400073707104
4	31.831816800055094	stim	43		2	unambiguous	left	preferred	66.0		36.08855410013348	0.033579499926418066
4	31.865396299981512	stim	44		2	unambiguous	left	preferred	66.0		36.1221336000599	0.033385700080543756
4	31.898782000062056	stim	45		2	unambiguous	left	preferred	66.0		36.15551930014044	0.034003500011749566
4	31.932785500073805	stim	46		2	unambiguous	left	preferred	66.0		36.18952280015219	0.03349049994722009
4	31.966276000021026	stim	47		2	unambiguous	left	preferred	66.0		36.22301330009941	0.033917700056917965
4	32.00019370007794	stim	48		2	unambiguous	left	preferred	66.0		36.25693100015633	0.03390979999676347
4	32.03410350007471	stim	49		2	unambiguous	left	preferred	66.0		36.29084080015309	0.033947299933061004
4	32.06805080000777	stim	50		2	unambiguous	left	preferred	66.0		36.32478810008615	0.03391260001808405
4	32.10196340002585	stim	51		2	unambiguous	left	preferred	66.0		36.35870070010424	0.033536699949763715
4	32.135500099975616	stim	52		2	unambiguous	left	preferred	66.0		36.392237400054	0.033614300074987113
4	32.1691144000506	stim	53		2	unambiguous	left	preferred	66.0		36.42585170012899	0.03337900002952665
4	32.20249340008013	stim	54		2	unambiguous	left	preferred	66.0		36.459230700158514	0.03371379990130663
4	32.236207199981436	stim	55		2	unambiguous	left	preferred	66.0		36.49294450005982	0.0333248000824824
4	32.26953200006392	stim	56		2	unambiguous	left	preferred	66.0		36.5262693001423	0.03334159997757524
4	32.302873600041494	stim	57		2	unambiguous	left	preferred	66.0		36.55961090011988	0.03351410001050681
4	32.336387700052	stim	58		2	unambiguous	left	preferred	66.0		36.593125000130385	0.03358329995535314
4	32.369971000007354	stim	59		2	unambiguous	left	preferred	66.0		36.62670830008574	0.03393620008137077
4	32.403907200088724	stim	60		2	unambiguous	left	preferred	66.0		36.66064450016711	0.03333469992503524
4	32.43724190001376	stim	61		2	unambiguous	left	preferred	66.0		36.693979200092144	0.03354039997793734
4	32.4707822999917	stim	62		2	unambiguous	left	preferred	66.0		36.72751960007008	0.03330860007554293
4	32.50409090006724	stim	63		2	unambiguous	left	preferred	66.0		36.760828200145625	0.033788800006732345
4	32.53787970007397	stim	64		2	unambiguous	left	preferred	66.0		36.79461700015236	0.03323549998458475
4	32.57111520005856	stim	65		2	unambiguous	left	preferred	66.0		36.82785250013694	0.033390299999155104
5	32.60450550005771	stim	0		2	unambiguous	right	preferred	70.0		36.8612428001361	0.033979799947701395
5	32.638485300005414	stim	1		2	unambiguous	right	preferred	70.0		36.8952226000838	0.03393719997256994
5	32.67242249997798	stim	2		2	unambiguous	right	preferred	70.0		36.92915980005637	0.033819800009950995
5	32.706242299987935	stim	3		2	unambiguous	right	preferred	70.0		36.96297960006632	0.03333220002241433
5	32.73957450001035	stim	4		2	unambiguous	right	preferred	70.0		36.99631180008873	0.03331359999720007
5	32.77288810000755	stim	5		2	unambiguous	right	preferred	70.0		37.02962540008593	0.033744300017133355
5	32.80663240002468	stim	6		2	unambiguous	right	preferred	70.0		37.06336970010307	0.03362050000578165
5	32.840252900030464	stim	7		2	unambiguous	right	preferred	70.0		37.09699020010885	0.03361629997380078
5	32.873869200004265	stim	8		2	unambiguous	right	preferred	70.0		37.13060650008265	0.033294100081548095
5	32.90716330008581	stim	9		2	unambiguous	right	preferred	70.0		37.1639006001642	0.03382049989886582
5	32.94098379998468	stim	10		2	unambiguous	right	preferred	70.0		37.19772110006306	0.03383550001308322
5	32.97481929999776	stim	11		2	unambiguous	right	preferred	70.0		37.231556600076146	0.033934100065380335
5	33.00875340006314	stim	12		2	unambiguous	right	preferred	70.0		37.26549070014153	0.03362369991373271
5	33.042377099976875	stim	13		2	unambiguous	right	preferred	70.0		37.29911440005526	0.033268800005316734
5	33.07564589998219	stim	14		2	unambiguous	right	preferred	70.0		37.332383200060576	0.033664500107988715
5	33.10931040009018	stim	15		2	unambiguous	right	preferred	70.0		37.366047700168565	0.033283299999311566
5	33.14259370008949	stim	16		2	unambiguous	right	preferred	70.0		37.39933100016788	0.03337739990092814
5	33.17597109999042	stim	17		2	unambiguous	right	preferred	70.0		37.432708400068805	0.03367750009056181
5	33.20964860008098	stim	18		2	unambiguous	right	preferred	70.0		37.466385900159366	0.03332819999195635
5	33.24297680007294	stim	19		2	unambiguous	right	preferred	70.0		37.49971410015132	0.0333207999356091
5	33.27629760000855	stim	20		2	unambiguous	right	preferred	70.0		37.53303490008693	0.03382850007619709
5	33.310126100084744	stim	21		2	unambiguous	right	preferred	70.0		37.56686340016313	0.033715799916535616
5	33.34384190000128	stim	22		2	unambiguous	right	preferred	70.0		37.600579200079665	0.033319300040602684
5	33.37716120004188	stim	23		2	unambiguous	right	preferred	70.0		37.63389850012027	0.03350599994882941
5	33.41066719999071	stim	24		2	unambiguous	right	preferred	70.0		37.6674045000691	0.03341300005558878
5	33.4440802000463	stim	25		2	unambiguous	right	preferred	70.0		37.700817500124685	0.03343940002378076
5	33.47751960007008	stim	26		2	unambiguous	right	preferred	70.0		37.734256900148466	0.033355899970047176
5	33.51087550004013	stim	27		2	unambiguous	right	preferred	70.0		37.76761280011851	0.03348270000424236
5	33.54435820004437	stim	28		2	unambiguous	right	preferred	70.0		37.801095500122756	0.03349109995178878
5	33.57784929999616	stim	29		2	unambiguous	right	preferred	70.0		37.834586600074545	0.03343880001921207
5	33.61128810001537	stim	30		2	unambiguous	right	preferred	70.0		37.86802540009376	0.033429000061005354
5	33.64471710007638	stim	31		2	unambiguous	right	preferred	70.0		37.90145440015476	0.033468700014054775
5	33.67818580009043	stim	32		2	unambiguous	right	preferred	70.0		37.93492310016882	0.0334693999029696
5	33.7116551999934	stim	33		2	unambiguous	right	preferred	70.0		37.968392500071786	0.03352560009807348
5	33.745180800091475	stim	34		2	unambiguous	right	preferred	70.0		38.00191810016986	0.033323299954645336
5	33.77850410004612	stim	35		2	unambiguous	right	preferred	70.0		38.035241400124505	0.03342779993545264
5	33.81193189998157	stim	36		2	unambiguous	right	preferred	70.0		38.06866920005996	0.03348730003926903
5	33.84541920002084	stim	37		2	unambiguous	right	preferred	70.0		38.10215650009923	0.03328159998636693
5	33.87870080000721	stim	38		2	unambiguous	right	preferred	70.0		38.135438100085594	0.03363820002414286
5	33.91233900003135	stim	39		2	unambiguous	right	preferred	70.0		38.16907630010974	0.033510199980810285
5	33.94584920001216	stim	40		2	unambiguous	right	preferred	70.0		38.20258650009055	0.0332618000684306
5	33.97911100008059	stim	41		2	unambiguous	right	preferred	70.0		38.23584830015898	0.03333749994635582
5	34.01244850002695	stim	42		2	unambiguous	right	preferred	70.0		38.26918580010533	0.03337339998688549
5	34.045821900013834	stim	43		2	unambiguous	right	preferred	70.0		38.30255920009222	0.0333047000458464
5	34.07912660005968	stim	44		2	unambiguous	right	preferred	70.0		38.335863900138065	0.03341619996353984
5	34.11254280002322	stim	45		2	unambiguous	right	preferred	70.0		38.369280100101605	0.03336600004695356
5	34.145908800070174	stim	46		2	unambiguous	right	preferred	70.0		38.40264610014856	0.03344829997513443
5	34.17935710004531	stim	47		2	unambiguous	right	preferred	70.0		38.43609440012369	0.03536149999126792
5	34.214718600036576	stim	48		2	unambiguous	right	preferred	70.0		38.47145590011496	0.03348320000804961
5	34.248201800044626	stim	49		2	unambiguous	right	preferred	70.0		38.50493910012301	0.031271499930880964
5	34.27947329997551	stim	50		2	unambiguous	right	preferred	70.0		38.53621060005389	0.033274700050242245
5	34.31274800002575	stim	51		2	unambiguous	right	preferred	70.0		38.569485300104134	0.033339599962346256
5	34.346087599988095	stim	52		2	unambiguous	right	preferred	70.0		38.60282490006648	0.03345059999264777
5	34.37953819998074	stim	53		2	unambiguous	right	preferred	70.0		38.63627550005913	0.03517330007161945
5	34.41471150005236	stim	54		2	unambiguous	right	preferred	70.0		38.67144880013075	0.03343259997200221
5	34.448144100024365	stim	55		2	unambiguous	right	preferred	70.0		38.70488140010275	0.03343800001312047
5	34.481582100037485	stim	56		2	unambiguous	right	preferred	70.0		38.73831940011587	0.03339350002352148
5	34.51497560006101	stim	57		2	unambiguous	right	preferred	70.0		38.77171290013939	0.03336140001192689
5	34.548337000072934	stim	58		2	unambiguous	right	preferred	70.0		38.80507430015132	0.03323089994955808
5	34.58156790002249	stim	59		2	unambiguous	right	preferred	70.0		38.838305200100876	0.033415399957448244
5	34.61498329997994	stim	60		2	unambiguous	right	preferred	70.0		38.871720600058325	0.03323080006521195
5	34.64821410004515	stim	61		2	unambiguous	right	preferred	70.0		38.90495140012354	0.03328570001758635
5	34.68149980006274	stim	62		2	unambiguous	right	preferred	70.0		38.93823710014112	0.0334646999835968
5	34.714964500046335	stim	63		2	unambiguous	right	preferred	70.0		38.97170180012472	0.03324429993517697
5	34.74820879998151	stim	64		2	unambiguous	right	preferred	70.0		39.0049461000599	0.03364480007439852
5	34.78185360005591	stim	65		2	unambiguous	right	preferred	70.0		39.038590900134295	0.03306539996992797
5	34.81491900002584	stim	66		2	unambiguous	right	preferred	70.0		39.07165630010422	0.033314600004814565
5	34.84823360003065	stim	67		2	unambiguous	right	preferred	70.0		39.10497090010904	0.033840600051917136
5	34.88207420008257	stim	68		2	unambiguous	right	preferred	70.0		39.138811500160955	0.033280499977990985
5	34.91535470006056	stim	69		2	unambiguous	right	preferred	70.0		39.172092000138946	0.0335390999680385
6	34.9488938000286	stim	0		2	unambiguous	left	preferred	68.0		39.205631100106984	0.0338931999867782
6	34.98278700001538	stim	1		2	unambiguous	left	preferred	68.0		39.23952430009376	0.03311369998846203
6	35.01590070000384	stim	2		2	unambiguous	left	preferred	68.0		39.272638000082225	0.033897100016474724
6	35.049797800020315	stim	3		2	unambiguous	left	preferred	68.0		39.3065351000987	0.03395439998712391
6	35.08375220000744	stim	4		2	unambiguous	left	preferred	68.0		39.34048950008582	0.03391400002874434
6	35.11766620003618	stim	5		2	unambiguous	left	preferred	68.0		39.37440350011457	0.03342760005034506
6	35.15109380008653	stim	6		2	unambiguous	left	preferred	68.0		39.40783110016491	0.033244899939745665
6	35.184338700026274	stim	7		2	unambiguous	left	preferred	68.0		39.44107600010466	0.03366930002812296
6	35.2180080000544	stim	8		2	unambiguous	left	preferred	68.0		39.47474530013278	0.03391050000209361
6	35.25191850005649	stim	9		2	unambiguous	left	preferred	68.0		39.508655800134875	0.0333408999722451
6	35.285259400028735	stim	10		2	unambiguous	left	preferred	68.0		39.54199670010712	0.03370899998117238
6	35.31896840000991	stim	11		2	unambiguous	left	preferred	68.0		39.57570570008829	0.03416989999823272
6	35.35313830000814	stim	12		2	unambiguous	left	preferred	68.0		39.609875600086525	0.033221399993635714
6	35.386359700001776	stim	13		2	unambiguous	left	preferred	68.0		39.64309700008016	0.03394970006775111
6	35.42030940006953	stim	14		2	unambiguous	left	preferred	68.0		39.67704670014791	0.03332859999500215
6	35.45363800006453	stim	15		2	unambiguous	left	preferred	68.0		39.710375300142914	0.03331949992571026
6	35.48695749999024	stim	16		2	unambiguous	left	preferred	68.0		39.743694800068624	0.033333800034597516
6	35.52029130002484	stim	17		2	unambiguous	left	preferred	68.0		39.77702860010322	0.03391590004321188
6	35.55420720006805	stim	18		2	unambiguous	left	preferred	68.0		39.810944500146434	0.03385279991198331
6	35.58805999998003	stim	19		2	unambiguous	left	preferred	68.0		39.84479730005842	0.03391430003102869
6	35.62197430001106	stim	20		2	unambiguous	left	preferred	68.0		39.878711600089446	0.03335859999060631
6	35.65533290000167	stim	21		2	unambiguous	left	preferred	68.0		39.91207020008005	0.03335709997918457
6	35.68868999998085	stim	22		2	unambiguous	left	preferred	68.0		39.94542730005924	0.033308700076304376
6	35.721998700057156	stim	23		2	unambiguous	left	preferred	68.0		39.97873600013554	0.03368819993920624
6	35.75568689999636	stim	24		2	unambiguous	left	preferred	68.0		40.01242420007475	0.03331000008620322
6	35.788996900082566	stim	25		2	unambiguous	left	preferred	68.0		40.04573420016095	0.033723699976690114
6	35.822720600059256	stim	26		2	unambiguous	left	preferred	68.0		40.07945790013764	0.03361879999283701
6	35.85633940005209	stim	27		2	unambiguous	left	preferred	68.0		40.11307670013048	0.033932099933736026
6	35.89027149998583	stim	28		2	unambiguous	left	preferred	68.0		40.147008800064214	0.033652300015091896
6	35.92392380000092	stim	29		2	unambiguous	left	preferred	68.0		40.180661100079305	0.03339730005245656
6	35.95732110005338	stim	30		2	unambiguous	left	preferred	68.0		40.21405840013176	0.033564699930138886
6	35.990885799983516	stim	31		2	unambiguous	left	preferred	68.0		40.2476231000619	0.033957800013013184
6	36.02484359999653	stim	32		2	unambiguous	left	preferred	68.0		40.281580900074914	0.03359730006195605
6	36.058440900058486	stim	33		2	unambiguous	left	preferred	68.0		40.31517820013687	0.033433099975809455
6	36.091874000034295	stim	34		2	unambiguous	left	preferred	68.0		40.34861130011268	0.03326749999541789
6	36.12514150002971	stim	35		2	unambiguous	left	preferred	68.0		40.3818788001081	0.03335839998908341
6	36.158499900018796	stim	36		2	unambiguous	left	preferred	68.0		40.41523720009718	0.03338180005084723
6	36.191881700069644	stim	37		2	unambiguous	left	preferred	68.0		40.44861900014803	0.03369569999631494
6	36.22557740006596	stim	38		2	unambiguous	left	preferred	68.0		40.48231470014434	0.0333520999411121
6	36.25892950000707	stim	39		2	unambiguous	left	preferred	68.0		40.515666800085455	0.03334830002859235
6	36.29227780003566	stim	40		2	unambiguous	left	preferred	68.0		40.54901510011405	0.033637700020335615
6	36.325915500056	stim	41		2	unambiguous	left	preferred	68.0		40.58265280013438	0.03338749997783452
6	36.35930300003383	stim	42		2	unambiguous	left	preferred	68.0		40.61604030011222	0.03328380000311881
6	36.39258680003695	stim	43		2	unambiguous	left	preferred	68.0		40.64932410011534	0.03327520005404949
6	36.425862000091	stim	44		2	unambiguous	left	preferred	68.0		40.682599300169386	0.033584399963729084
6	36.45944640005473	stim	45		2	unambiguous	left	preferred	68.0		40.716183700133115	0.03355279995594174
6	36.49299920001067	stim	46		2	unambiguous	left	preferred	68.0		40.74973650008906	0.033362000016495585
6	36.52636120002717	stim	47		2	unambiguous	left	preferred	68.0		40.78309850010555	0.0336401000386104
6	36.56000130006578	stim	48		2	unambiguous	left	preferred	68.0		40.81673860014416	0.032966099912300706
6	36.59296739997808	stim	49		2	unambiguous	left	preferred	68.0		40.84970470005646	0.033494100091047585
6	36.62646150006913	stim	50		2	unambiguous	left	preferred	68.0		40.88319880014751	0.03329279995523393
6	36.65975430002436	stim	51		2	unambiguous	left	preferred	68.0		40.916491600102745	0.03303000004962087
6	36.69278430007398	stim	52		2	unambiguous	left	preferred	68.0		40.949521600152366	0.03362219990231097
6	36.72640649997629	stim	53		2	unambiguous	left	preferred	68.0		40.98314380005468	0.03345760004594922
6	36.75986410002224	stim	54		2	unambiguous	left	preferred	68.0		41.016601400100626	0.03345520002767444
6	36.793319300049916	stim	55		2	unambiguous	left	preferred	68.0		41.0500566001283	0.033757199998945
6	36.82707650004886	stim	56		2	unambiguous	left	preferred	68.0		41.083813800127245	0.03362330002710223
6	36.86069980007596	stim	57		2	unambiguous	left	preferred	68.0		41.11743710015435	0.033437500009313226
6	36.894137300085276	stim	58		2	unambiguous	left	preferred	68.0		41.15087460016366	0.03365119989030063
