trial_nr	onset	event_type	phase	response	nr_frames	block_type	trial_type	block_ID	response_hand	phase_length	last_frame	key_duration	onset_abs	duration
0	0.01663249998819083	stim	0		0	ambiguous_practice	ambiguous_practice	0.0	preferred_right	300.0	0.0		4.531575499975588	2.5018583000055514
0	2.5184907999937423	ambiguous_practice	0	space	1	ambiguous_practice	ambiguous_practice	0.0	preferred_right	300.0	0.0	0.10021790000610054	7.03343379998114	-2.4347303999820724
0	0.08376040001166984	stim	1		2	ambiguous_practice	ambiguous_practice	0.0	preferred_right	300.0	0.0		4.598703399999067	0.03377619996899739
0	0.11753659998066723	stim	2		0	ambiguous_practice	ambiguous_practice	0.0	preferred_right	300.0	0.0		4.632479599968065	3.295447700016666
0	3.4129842999973334	ambiguous_practice	2	space	2	ambiguous_practice	ambiguous_practice	0.0	preferred_right	300.0	0.0	0.11725790001219139	7.927927299984731	-3.229707599966787
0	0.18327670003054664	stim	3		2	ambiguous_practice	ambiguous_practice	0.0	preferred_right	300.0	0.0		4.698219700017944	0.03390919999219477
0	0.2171859000227414	stim	4		2	ambiguous_practice	ambiguous_practice	0.0	preferred_right	300.0	0.0		4.732128900010139	0.03362910001305863
0	0.25081500003580004	stim	5		2	ambiguous_practice	ambiguous_practice	0.0	preferred_right	300.0	0.0		4.765758000023197	0.03325209999457002
0	0.28406710003037006	stim	6		2	ambiguous_practice	ambiguous_practice	0.0	preferred_right	300.0	0.0		4.799010100017767	0.03372760000638664
0	0.3177947000367567	stim	7		2	ambiguous_practice	ambiguous_practice	0.0	preferred_right	300.0	0.0		4.832737700024154	0.03276249999180436
0	0.35055720002856106	stim	8		2	ambiguous_practice	ambiguous_practice	0.0	preferred_right	300.0	0.0		4.865500200015958	0.03378090000478551
0	0.38433810003334656	stim	9		2	ambiguous_practice	ambiguous_practice	0.0	preferred_right	300.0	0.0		4.899281100020744	0.032707199978176504
0	0.41704530001152307	stim	10		2	ambiguous_practice	ambiguous_practice	0.0	preferred_right	300.0	0.0		4.93198829999892	0.03339409996988252
0	0.4504393999814056	stim	11		2	ambiguous_practice	ambiguous_practice	0.0	preferred_right	300.0	0.0		4.965382399968803	0.03363960003480315
0	0.48407900001620874	stim	12		2	ambiguous_practice	ambiguous_practice	0.0	preferred_right	300.0	0.0		4.999022000003606	0.033662799978628755
0	0.5177417999948375	stim	13		2	ambiguous_practice	ambiguous_practice	0.0	preferred_right	300.0	0.0		5.032684799982235	0.033261300006415695
0	0.5510031000012532	stim	14		2	ambiguous_practice	ambiguous_practice	0.0	preferred_right	300.0	0.0		5.0659460999886505	0.03351259999908507
0	0.5845157000003383	stim	15		2	ambiguous_practice	ambiguous_practice	0.0	preferred_right	300.0	0.0		5.099458699987736	0.0336517000105232
0	0.6181674000108615	stim	16		2	ambiguous_practice	ambiguous_practice	0.0	preferred_right	300.0	0.0		5.133110399998259	0.03417609998723492
0	0.6523434999980964	stim	17		2	ambiguous_practice	ambiguous_practice	0.0	preferred_right	300.0	0.0		5.167286499985494	0.03315989999100566
0	0.685503399989102	stim	18		2	ambiguous_practice	ambiguous_practice	0.0	preferred_right	300.0	0.0		5.200446399976499	0.03346110001439229
0	0.7189645000034943	stim	19		2	ambiguous_practice	ambiguous_practice	0.0	preferred_right	300.0	0.0		5.233907499990892	0.033509999979287386
0	0.7524744999827817	stim	20		2	ambiguous_practice	ambiguous_practice	0.0	preferred_right	300.0	0.0		5.267417499970179	0.033702700049616396
0	0.7861772000323981	stim	21		2	ambiguous_practice	ambiguous_practice	0.0	preferred_right	300.0	0.0		5.3011202000197954	0.03359869995620102
0	0.8197758999885991	stim	22		2	ambiguous_practice	ambiguous_practice	0.0	preferred_right	300.0	0.0		5.3347188999759965	0.03338820004137233
0	0.8531641000299715	stim	23		2	ambiguous_practice	ambiguous_practice	0.0	preferred_right	300.0	0.0		5.368107100017369	0.03341119998367503
0	0.8865753000136465	stim	24		2	ambiguous_practice	ambiguous_practice	0.0	preferred_right	300.0	0.0		5.401518300001044	0.03333800000837073
0	0.9199133000220172	stim	25		2	ambiguous_practice	ambiguous_practice	0.0	preferred_right	300.0	0.0		5.4348563000094146	0.03327559999888763
0	0.9531889000209048	stim	26		2	ambiguous_practice	ambiguous_practice	0.0	preferred_right	300.0	0.0		5.468131900008302	0.033345800009556115
0	0.986534700030461	stim	27		2	ambiguous_practice	ambiguous_practice	0.0	preferred_right	300.0	0.0		5.501477700017858	0.03390359994955361
0	1.0204382999800146	stim	28		2	ambiguous_practice	ambiguous_practice	0.0	preferred_right	300.0	0.0		5.535381299967412	0.0332174000213854
0	1.0536557000014	stim	29		2	ambiguous_practice	ambiguous_practice	0.0	preferred_right	300.0	0.0		5.568598699988797	0.03326250001555309
0	1.086918200016953	stim	30		2	ambiguous_practice	ambiguous_practice	0.0	preferred_right	300.0	0.0		5.60186120000435	0.03338749997783452
0	1.1203056999947876	stim	31		2	ambiguous_practice	ambiguous_practice	0.0	preferred_right	300.0	0.0		5.635248699982185	0.033562200027517974
0	1.1538679000223055	stim	32		2	ambiguous_practice	ambiguous_practice	0.0	preferred_right	300.0	0.0		5.668810900009703	0.03298219997668639
0	1.186850099998992	stim	33		2	ambiguous_practice	ambiguous_practice	0.0	preferred_right	300.0	0.0		5.701793099986389	0.0334788000327535
0	1.2203289000317454	stim	34		2	ambiguous_practice	ambiguous_practice	0.0	preferred_right	300.0	0.0		5.735271900019143	0.033310099970549345
0	1.2536390000022948	stim	35		2	ambiguous_practice	ambiguous_practice	0.0	preferred_right	300.0	0.0		5.768581999989692	0.033619599998928607
0	1.2872586000012234	stim	36		2	ambiguous_practice	ambiguous_practice	0.0	preferred_right	300.0	0.0		5.802201599988621	0.03369170002406463
0	1.320950300025288	stim	37		2	ambiguous_practice	ambiguous_practice	0.0	preferred_right	300.0	0.0		5.835893300012685	0.0332295999978669
0	1.354179900023155	stim	38		2	ambiguous_practice	ambiguous_practice	0.0	preferred_right	300.0	0.0		5.869122900010552	0.03407539997715503
0	1.38825530000031	stim	39		2	ambiguous_practice	ambiguous_practice	0.0	preferred_right	300.0	0.0		5.903198299987707	0.0335159000242129
0	1.4217712000245228	stim	40		2	ambiguous_practice	ambiguous_practice	0.0	preferred_right	300.0	0.0		5.93671420001192	0.03313789999810979
0	1.4549091000226326	stim	41		2	ambiguous_practice	ambiguous_practice	0.0	preferred_right	300.0	0.0		5.96985210001003	0.03340969997225329
0	1.488318799994886	stim	42		2	ambiguous_practice	ambiguous_practice	0.0	preferred_right	300.0	0.0		6.003261799982283	0.03334309998899698
0	1.521661899983883	stim	43		2	ambiguous_practice	ambiguous_practice	0.0	preferred_right	300.0	0.0		6.03660489997128	0.033553300017956644
0	1.5552152000018395	stim	44		2	ambiguous_practice	ambiguous_practice	0.0	preferred_right	300.0	0.0		6.070158199989237	0.03342370002064854
0	1.588638900022488	stim	45		2	ambiguous_practice	ambiguous_practice	0.0	preferred_right	300.0	0.0		6.103581900009885	0.03335809998679906
0	1.6219970000092871	stim	46		2	ambiguous_practice	ambiguous_practice	0.0	preferred_right	300.0	0.0		6.1369399999966845	0.0333229000098072
0	1.6553199000190943	stim	47		2	ambiguous_practice	ambiguous_practice	0.0	preferred_right	300.0	0.0		6.170262900006492	0.03364539996255189
0	1.6889652999816462	stim	48		2	ambiguous_practice	ambiguous_practice	0.0	preferred_right	300.0	0.0		6.203908299969044	0.033742800005711615
0	1.7227080999873579	stim	49		2	ambiguous_practice	ambiguous_practice	0.0	preferred_right	300.0	0.0		6.237651099974755	0.03343130002031103
0	1.7561394000076689	stim	50		2	ambiguous_practice	ambiguous_practice	0.0	preferred_right	300.0	0.0		6.271082399995066	0.0337567999958992
0	1.789896200003568	stim	51		2	ambiguous_practice	ambiguous_practice	0.0	preferred_right	300.0	0.0		6.304839199990965	0.03370369999902323
0	1.8235999000025913	stim	52		2	ambiguous_practice	ambiguous_practice	0.0	preferred_right	300.0	0.0		6.338542899989989	0.03363860002718866
0	1.85723850002978	stim	53		2	ambiguous_practice	ambiguous_practice	0.0	preferred_right	300.0	0.0		6.372181500017177	0.033733699994627386
0	1.8909722000244074	stim	54		2	ambiguous_practice	ambiguous_practice	0.0	preferred_right	300.0	0.0		6.405915200011805	0.0335015999735333
0	1.9244737999979407	stim	55		2	ambiguous_practice	ambiguous_practice	0.0	preferred_right	300.0	0.0		6.439416799985338	0.03363200003514066
0	1.9581058000330813	stim	56		2	ambiguous_practice	ambiguous_practice	0.0	preferred_right	300.0	0.0		6.473048800020479	0.033339799963869154
0	1.9914455999969505	stim	57		2	ambiguous_practice	ambiguous_practice	0.0	preferred_right	300.0	0.0		6.506388599984348	0.03311840002425015
0	2.0245640000212006	stim	58		2	ambiguous_practice	ambiguous_practice	0.0	preferred_right	300.0	0.0		6.539507000008598	0.03390340000623837
0	2.058467400027439	stim	59		2	ambiguous_practice	ambiguous_practice	0.0	preferred_right	300.0	0.0		6.573410400014836	0.0332467999542132
0	2.091714199981652	stim	60		2	ambiguous_practice	ambiguous_practice	0.0	preferred_right	300.0	0.0		6.6066571999690495	0.03400179999880493
0	2.125715999980457	stim	61		2	ambiguous_practice	ambiguous_practice	0.0	preferred_right	300.0	0.0		6.6406589999678545	0.04954020003788173
0	2.175256200018339	stim	62		2	ambiguous_practice	ambiguous_practice	0.0	preferred_right	300.0	0.0		6.690199200005736	0.04995710001094267
0	2.2252133000292815	stim	63		2	ambiguous_practice	ambiguous_practice	0.0	preferred_right	300.0	0.0		6.740156300016679	0.04984539997531101
0	2.2750587000045925	stim	64		2	ambiguous_practice	ambiguous_practice	0.0	preferred_right	300.0	0.0		6.79000169999199	0.05024850001791492
0	2.3253072000225075	stim	65		2	ambiguous_practice	ambiguous_practice	0.0	preferred_right	300.0	0.0		6.840250200009905	0.050130799994803965
0	2.3754380000173114	stim	66		2	ambiguous_practice	ambiguous_practice	0.0	preferred_right	300.0	0.0		6.890381000004709	0.05004609999014065
0	2.425484100007452	stim	67		2	ambiguous_practice	ambiguous_practice	0.0	preferred_right	300.0	0.0		6.940427099994849	0.049935500021092594
0	2.4754196000285447	stim	68		2	ambiguous_practice	ambiguous_practice	0.0	preferred_right	300.0	0.0		6.990362600015942	0.04989119997480884
0	2.5253108000033535	stim	69		2	ambiguous_practice	ambiguous_practice	0.0	preferred_right	300.0	0.0		7.040253799990751	0.05006370000774041
0	2.575374500011094	stim	70		2	ambiguous_practice	ambiguous_practice	0.0	preferred_right	300.0	0.0		7.090317499998491	0.05096839996986091
0	2.626342899980955	stim	71		2	ambiguous_practice	ambiguous_practice	0.0	preferred_right	300.0	0.0		7.141285899968352	0.04985340003622696
0	2.676196300017182	stim	72		2	ambiguous_practice	ambiguous_practice	0.0	preferred_right	300.0	0.0		7.191139300004579	0.050844800018239766
0	2.7270411000354216	stim	73		2	ambiguous_practice	ambiguous_practice	0.0	preferred_right	300.0	0.0		7.241984100022819	0.049388699990231544
0	2.776429800025653	stim	74		2	ambiguous_practice	ambiguous_practice	0.0	preferred_right	300.0	0.0		7.29137280001305	0.04999390000011772
0	2.826423700025771	stim	75		2	ambiguous_practice	ambiguous_practice	0.0	preferred_right	300.0	0.0		7.341366700013168	0.033449599985033274
0	2.859873300010804	stim	76		2	ambiguous_practice	ambiguous_practice	0.0	preferred_right	300.0	0.0		7.374816299998201	0.04969289997825399
0	2.909566199989058	stim	77		2	ambiguous_practice	ambiguous_practice	0.0	preferred_right	300.0	0.0		7.424509199976455	0.03352140000788495
0	2.943087599996943	stim	78		2	ambiguous_practice	ambiguous_practice	0.0	preferred_right	300.0	0.0		7.45803059998434	0.03335059998789802
0	2.976438199984841	stim	79		2	ambiguous_practice	ambiguous_practice	0.0	preferred_right	300.0	0.0		7.491381199972238	0.033369500015396625
0	3.0098077000002377	stim	80		2	ambiguous_practice	ambiguous_practice	0.0	preferred_right	300.0	0.0		7.524750699987635	0.049966000020504
0	3.0597737000207417	stim	81		2	ambiguous_practice	ambiguous_practice	0.0	preferred_right	300.0	0.0		7.574716700008139	0.050135299970861524
0	3.109908999991603	stim	82		2	ambiguous_practice	ambiguous_practice	0.0	preferred_right	300.0	0.0		7.6248519999790005	0.03330940002342686
0	3.14321840001503	stim	83		2	ambiguous_practice	ambiguous_practice	0.0	preferred_right	300.0	0.0		7.658161400002427	0.03352369996719062
0	3.1767420999822207	stim	84		2	ambiguous_practice	ambiguous_practice	0.0	preferred_right	300.0	0.0		7.691685099969618	0.05100730003323406
0	3.2277494000154547	stim	85		2	ambiguous_practice	ambiguous_practice	0.0	preferred_right	300.0	0.0		7.742692400002852	0.05030609999084845
0	3.278055500006303	stim	86		2	ambiguous_practice	ambiguous_practice	0.0	preferred_right	300.0	0.0		7.7929984999937005	0.048819600022397935
0	3.326875100028701	stim	87		2	ambiguous_practice	ambiguous_practice	0.0	preferred_right	300.0	0.0		7.8418181000160985	0.051372099958825856
0	3.378247199987527	stim	88		2	ambiguous_practice	ambiguous_practice	0.0	preferred_right	300.0	0.0		7.893190199974924	0.0663668000488542
0	3.444614000036381	stim	89		2	ambiguous_practice	ambiguous_practice	0.0	preferred_right	300.0	0.0		7.9595570000237785	0.05039659998146817
0	3.4950106000178494	stim	90		2	ambiguous_practice	ambiguous_practice	0.0	preferred_right	300.0	0.0		8.009953600005247	0.04987089999485761
0	3.544881500012707	stim	91		2	ambiguous_practice	ambiguous_practice	0.0	preferred_right	300.0	0.0		8.059824500000104	0.050180999969597906
0	3.595062499982305	stim	92		2	ambiguous_practice	ambiguous_practice	0.0	preferred_right	300.0	0.0		8.110005499969702	0.06589160003932193
0	3.660954100021627	stim	93		2	ambiguous_practice	ambiguous_practice	0.0	preferred_right	300.0	0.0		8.175897100009024	0.05017120001139119
0	3.711125300033018	stim	94		2	ambiguous_practice	ambiguous_practice	0.0	preferred_right	300.0	0.0		8.226068300020415	0.049908499990124255
0	3.7610338000231422	stim	95		2	ambiguous_practice	ambiguous_practice	0.0	preferred_right	300.0	0.0		8.27597680001054	0.04972999996971339
0	3.8107637999928556	stim	96		2	ambiguous_practice	ambiguous_practice	0.0	preferred_right	300.0	0.0		8.325706799980253	0.05041590001201257
0	3.861179700004868	stim	97		2	ambiguous_practice	ambiguous_practice	0.0	preferred_right	300.0	0.0		8.376122699992266	0.05087099998490885
0	3.912050699989777	stim	98		2	ambiguous_practice	ambiguous_practice	0.0	preferred_right	300.0	0.0		8.426993699977174	0.04996690002735704
0	3.962017600017134	stim	99		2	ambiguous_practice	ambiguous_practice	0.0	preferred_right	300.0	0.0		8.476960600004531	0.04998189996695146
0	4.011999499984086	stim	100		2	ambiguous_practice	ambiguous_practice	0.0	preferred_right	300.0	0.0		8.526942499971483	0.05006070004310459
0	4.06206020002719	stim	101		2	ambiguous_practice	ambiguous_practice	0.0	preferred_right	300.0	0.0		8.577003200014587	0.05038169998442754
0	4.112441900011618	stim	102		2	ambiguous_practice	ambiguous_practice	0.0	preferred_right	300.0	0.0		8.627384899999015	0.04988439998123795
0	4.162326299992856	stim	103		2	ambiguous_practice	ambiguous_practice	0.0	preferred_right	300.0	0.0		8.677269299980253	0.04995990003226325
0	4.212286200025119	stim	104		2	ambiguous_practice	ambiguous_practice	0.0	preferred_right	300.0	0.0		8.727229200012516	0.050247899955138564
0	4.2625340999802575	stim	105		2	ambiguous_practice	ambiguous_practice	0.0	preferred_right	300.0	0.0		8.777477099967655	0.04983220004942268
0	4.31236630002968	stim	106		2	ambiguous_practice	ambiguous_practice	0.0	preferred_right	300.0	0.0		8.827309300017077	0.05005939997499809
0	4.362425700004678	stim	107		2	ambiguous_practice	ambiguous_practice	0.0	preferred_right	300.0	0.0		8.877368699992076	0.06634309998480603
0	4.428768799989484	stim	108		2	ambiguous_practice	ambiguous_practice	0.0	preferred_right	300.0	0.0		8.943711799976882	0.050369200005661696
0	4.479137999995146	stim	109		2	ambiguous_practice	ambiguous_practice	0.0	preferred_right	300.0	0.0		8.994080999982543	0.04993169999215752
0	4.5290696999873035	stim	110		2	ambiguous_practice	ambiguous_practice	0.0	preferred_right	300.0	0.0		9.0440126999747	0.06558370002312586
0	4.594653400010429	stim	111		2	ambiguous_practice	ambiguous_practice	0.0	preferred_right	300.0	0.0		9.109596399997827	0.05001050001010299
0	4.644663900020532	stim	112		2	ambiguous_practice	ambiguous_practice	0.0	preferred_right	300.0	0.0		9.15960690000793	0.050121799984481186
0	4.6947857000050135	stim	113		2	ambiguous_practice	ambiguous_practice	0.0	preferred_right	300.0	0.0		9.20972869999241	0.05078400002093986
0	4.745569700025953	stim	114		2	ambiguous_practice	ambiguous_practice	0.0	preferred_right	300.0	0.0		9.26051270001335	0.04944069997873157
0	4.795010400004685	stim	115		2	ambiguous_practice	ambiguous_practice	0.0	preferred_right	300.0	0.0		9.309953399992082	0.05010809999657795
0	4.845118500001263	stim	116		2	ambiguous_practice	ambiguous_practice	0.0	preferred_right	300.0	0.0		9.36006149998866	0.050139800005126745
0	4.89525830000639	stim	117		2	ambiguous_practice	ambiguous_practice	0.0	preferred_right	300.0	0.0		9.410201299993787	0.050391500000841916
0	4.9456498000072315	stim	118		2	ambiguous_practice	ambiguous_practice	0.0	preferred_right	300.0	0.0		9.460592799994629	0.05095960001926869
0	4.9966094000265	stim	119		2	ambiguous_practice	ambiguous_practice	0.0	preferred_right	300.0	0.0		9.511552400013898	0.05041009996784851
0	5.047019499994349	stim	120		2	ambiguous_practice	ambiguous_practice	0.0	preferred_right	300.0	0.0		9.561962499981746	0.06619530002353713
0	5.113214800017886	stim	121		2	ambiguous_practice	ambiguous_practice	0.0	preferred_right	300.0	0.0		9.628157800005283	0.06672669999534264
0	5.1799415000132285	stim	122		2	ambiguous_practice	ambiguous_practice	0.0	preferred_right	300.0	0.0		9.694884500000626	0.049998799979221076
0	5.22994029999245	stim	123		2	ambiguous_practice	ambiguous_practice	0.0	preferred_right	300.0	0.0		9.744883299979847	0.04999999998835847
0	5.279940299980808	stim	124		2	ambiguous_practice	ambiguous_practice	0.0	preferred_right	300.0	0.0		9.794883299968205	0.06774080003378913
0	5.347681100014597	stim	125		2	ambiguous_practice	ambiguous_practice	0.0	preferred_right	300.0	0.0		9.862624100001995	0.06568780000088736
0	5.4133689000154845	stim	126		2	ambiguous_practice	ambiguous_practice	0.0	preferred_right	300.0	0.0		9.928311900002882	0.050794399983715266
0	5.4641632999992	stim	127		2	ambiguous_practice	ambiguous_practice	0.0	preferred_right	300.0	0.0		9.979106299986597	0.050370900018606335
0	5.514534200017806	stim	128		2	ambiguous_practice	ambiguous_practice	0.0	preferred_right	300.0	0.0		10.029477200005203	0.049469899968244135
0	5.56400409998605	stim	129		2	ambiguous_practice	ambiguous_practice	0.0	preferred_right	300.0	0.0		10.078947099973448	0.04890690004685894
0	5.612911000032909	stim	130		2	ambiguous_practice	ambiguous_practice	0.0	preferred_right	300.0	0.0		10.127854000020307	0.04997860000003129
0	5.6628896000329405	stim	131		2	ambiguous_practice	ambiguous_practice	0.0	preferred_right	300.0	0.0		10.177832600020338	0.051873199990950525
0	5.714762800023891	stim	132		2	ambiguous_practice	ambiguous_practice	0.0	preferred_right	300.0	0.0		10.229705800011288	0.04904859996167943
0	5.7638113999855705	stim	133		2	ambiguous_practice	ambiguous_practice	0.0	preferred_right	300.0	0.0		10.278754399972968	0.050265500030945987
0	5.8140769000165164	stim	134		2	ambiguous_practice	ambiguous_practice	0.0	preferred_right	300.0	0.0		10.329019900003914	0.06731850001960993
0	5.881395400036126	stim	135		2	ambiguous_practice	ambiguous_practice	0.0	preferred_right	300.0	0.0		10.396338400023524	0.0669235999812372
0	5.948319000017364	stim	136		2	ambiguous_practice	ambiguous_practice	0.0	preferred_right	300.0	0.0		10.463262000004761	0.04982040001777932
0	5.998139400035143	stim	137		2	ambiguous_practice	ambiguous_practice	0.0	preferred_right	300.0	0.0		10.51308240002254	0.050112899974919856
0	6.048252300010063	stim	138		2	ambiguous_practice	ambiguous_practice	0.0	preferred_right	300.0	0.0		10.56319529999746	0.06496649998007342
0	6.113218799990136	stim	139		2	ambiguous_practice	ambiguous_practice	0.0	preferred_right	300.0	0.0		10.628161799977534	0.0512443000334315
0	6.164463100023568	stim	140		2	ambiguous_practice	ambiguous_practice	0.0	preferred_right	300.0	0.0		10.679406100010965	0.050297999987378716
0	6.214761100010946	stim	141		2	ambiguous_practice	ambiguous_practice	0.0	preferred_right	300.0	0.0		10.729704099998344	0.05033060000278056
0	6.265091700013727	stim	142		2	ambiguous_practice	ambiguous_practice	0.0	preferred_right	300.0	0.0		10.780034700001124	0.06680640002014115
0	6.331898100033868	stim	143		2	ambiguous_practice	ambiguous_practice	0.0	preferred_right	300.0	0.0		10.846841100021265	0.06620569998631254
0	6.398103800020181	stim	144		2	ambiguous_practice	ambiguous_practice	0.0	preferred_right	300.0	0.0		10.913046800007578	0.05067510000662878
0	6.448778900026809	stim	145		2	ambiguous_practice	ambiguous_practice	0.0	preferred_right	300.0	0.0		10.963721900014207	0.050522100005764514
0	6.499301000032574	stim	146		2	ambiguous_practice	ambiguous_practice	0.0	preferred_right	300.0	0.0		11.014244000019971	0.049372099980246276
0	6.54867310001282	stim	147		2	ambiguous_practice	ambiguous_practice	0.0	preferred_right	300.0	0.0		11.063616100000218	0.04873759998008609
0	6.597410699992906	stim	148		2	ambiguous_practice	ambiguous_practice	0.0	preferred_right	300.0	0.0		11.112353699980304	0.050036300031933933
0	6.64744700002484	stim	149		2	ambiguous_practice	ambiguous_practice	0.0	preferred_right	300.0	0.0		11.162390000012238	0.04986729996744543
0	6.697314299992286	stim	150		2	ambiguous_practice	ambiguous_practice	0.0	preferred_right	300.0	0.0		11.212257299979683	0.051966600003652275
0	6.749280899995938	stim	151		2	ambiguous_practice	ambiguous_practice	0.0	preferred_right	300.0	0.0		11.264223899983335	0.04854640003759414
0	6.797827300033532	stim	152		2	ambiguous_practice	ambiguous_practice	0.0	preferred_right	300.0	0.0		11.31277030002093	0.05013429996324703
0	6.847961599996779	stim	153		2	ambiguous_practice	ambiguous_practice	0.0	preferred_right	300.0	0.0		11.362904599984176	0.05102810001699254
0	6.898989700013772	stim	154		2	ambiguous_practice	ambiguous_practice	0.0	preferred_right	300.0	0.0		11.413932700001169	0.05021199997281656
0	6.949201699986588	stim	155		2	ambiguous_practice	ambiguous_practice	0.0	preferred_right	300.0	0.0		11.464144699973986	0.04977870004950091
0	6.998980400036089	stim	156		2	ambiguous_practice	ambiguous_practice	0.0	preferred_right	300.0	0.0		11.513923400023486	0.05072819994529709
0	7.049708599981386	stim	157		2	ambiguous_practice	ambiguous_practice	0.0	preferred_right	300.0	0.0		11.564651599968784	0.06627070001559332
0	7.1159792999969795	stim	158		2	ambiguous_practice	ambiguous_practice	0.0	preferred_right	300.0	0.0		11.630922299984377	0.06755390000762418
0	7.183533200004604	stim	159		2	ambiguous_practice	ambiguous_practice	0.0	preferred_right	300.0	0.0		11.698476199992001	0.04919039999367669
0	7.23272359999828	stim	160		2	ambiguous_practice	ambiguous_practice	0.0	preferred_right	300.0	0.0		11.747666599985678	0.0504192000371404
0	7.283142800035421	stim	161		2	ambiguous_practice	ambiguous_practice	0.0	preferred_right	300.0	0.0		11.798085800022818	0.06685609999112785
0	7.349998900026549	stim	162		2	ambiguous_practice	ambiguous_practice	0.0	preferred_right	300.0	0.0		11.864941900013946	0.05008969997288659
0	7.400088599999435	stim	163		2	ambiguous_practice	ambiguous_practice	0.0	preferred_right	300.0	0.0		11.915031599986833	0.05110759998206049
0	7.451196199981496	stim	164		2	ambiguous_practice	ambiguous_practice	0.0	preferred_right	300.0	0.0		11.966139199968893	0.04862030001822859
0	7.499816499999724	stim	165		2	ambiguous_practice	ambiguous_practice	0.0	preferred_right	300.0	0.0		12.014759499987122	0.05015720002120361
0	7.549973700020928	stim	166		2	ambiguous_practice	ambiguous_practice	0.0	preferred_right	300.0	0.0		12.064916700008325	0.04965870000887662
0	7.599632400029805	stim	167		2	ambiguous_practice	ambiguous_practice	0.0	preferred_right	300.0	0.0		12.114575400017202	0.05018449999624863
0	7.649816900026053	stim	168		2	ambiguous_practice	ambiguous_practice	0.0	preferred_right	300.0	0.0		12.16475990001345	0.06842239998513833
0	7.7182393000111915	stim	169		2	ambiguous_practice	ambiguous_practice	0.0	preferred_right	300.0	0.0		12.233182299998589	0.049963500001467764
0	7.768202800012659	stim	170		2	ambiguous_practice	ambiguous_practice	0.0	preferred_right	300.0	0.0		12.283145800000057	0.049947199993766844
0	7.818150000006426	stim	171		2	ambiguous_practice	ambiguous_practice	0.0	preferred_right	300.0	0.0		12.333092999993823	0.049981300020590425
0	7.8681313000270166	stim	172		2	ambiguous_practice	ambiguous_practice	0.0	preferred_right	300.0	0.0		12.383074300014414	0.04987659998005256
0	7.918007900007069	stim	173		2	ambiguous_practice	ambiguous_practice	0.0	preferred_right	300.0	0.0		12.432950899994466	0.05157780001172796
0	7.969585700018797	stim	174		2	ambiguous_practice	ambiguous_practice	0.0	preferred_right	300.0	0.0		12.484528700006194	0.04736109997611493
0	8.016946799994912	stim	175		2	ambiguous_practice	ambiguous_practice	0.0	preferred_right	300.0	0.0		12.53188979998231	0.05050830001709983
0	8.067455100012012	stim	176		2	ambiguous_practice	ambiguous_practice	0.0	preferred_right	300.0	0.0		12.58239809999941	0.050816899980418384
0	8.11827199999243	stim	177		2	ambiguous_practice	ambiguous_practice	0.0	preferred_right	300.0	0.0		12.633214999979828	0.05165570002282038
0	8.16992770001525	stim	178		2	ambiguous_practice	ambiguous_practice	0.0	preferred_right	300.0	0.0		12.684870700002648	0.06428859999869019
0	8.23421630001394	stim	179		2	ambiguous_practice	ambiguous_practice	0.0	preferred_right	300.0	0.0		12.749159300001338	0.05233869998482987
0	8.28655499999877	stim	180		2	ambiguous_practice	ambiguous_practice	0.0	preferred_right	300.0	0.0		12.801497999986168	0.049959200026933104
0	8.336514200025704	stim	181		2	ambiguous_practice	ambiguous_practice	0.0	preferred_right	300.0	0.0		12.851457200013101	0.0477746999822557
0	8.38428890000796	stim	182		2	ambiguous_practice	ambiguous_practice	0.0	preferred_right	300.0	0.0		12.899231899995357	0.052517800009809434
0	8.436806700017769	stim	183		2	ambiguous_practice	ambiguous_practice	0.0	preferred_right	300.0	0.0		12.951749700005166	0.06646170001477003
0	8.503268400032539	stim	184		2	ambiguous_practice	ambiguous_practice	0.0	preferred_right	300.0	0.0		13.018211400019936	0.04997769999317825
0	8.553246100025717	stim	185		2	ambiguous_practice	ambiguous_practice	0.0	preferred_right	300.0	0.0		13.068189100013115	0.04808949999278411
0	8.601335600018501	stim	186		2	ambiguous_practice	ambiguous_practice	0.0	preferred_right	300.0	0.0		13.116278600005899	0.049625399988144636
0	8.650961000006646	stim	187		2	ambiguous_practice	ambiguous_practice	0.0	preferred_right	300.0	0.0		13.165903999994043	0.05223500001011416
0	8.70319600001676	stim	188		2	ambiguous_practice	ambiguous_practice	0.0	preferred_right	300.0	0.0		13.218139000004157	0.06698529998539016
0	8.77018130000215	stim	189		2	ambiguous_practice	ambiguous_practice	0.0	preferred_right	300.0	0.0		13.285124299989548	0.05054600001312792
0	8.820727300015278	stim	190		2	ambiguous_practice	ambiguous_practice	0.0	preferred_right	300.0	0.0		13.335670300002676	0.06518209999194369
0	8.885909400007222	stim	191		2	ambiguous_practice	ambiguous_practice	0.0	preferred_right	300.0	0.0		13.40085239999462	0.05027210002299398
0	8.936181500030216	stim	192		2	ambiguous_practice	ambiguous_practice	0.0	preferred_right	300.0	0.0		13.451124500017613	0.05124830000568181
0	8.987429800035898	stim	193		2	ambiguous_practice	ambiguous_practice	0.0	preferred_right	300.0	0.0		13.502372800023295	0.05025739996926859
0	9.037687200005166	stim	194		2	ambiguous_practice	ambiguous_practice	0.0	preferred_right	300.0	0.0		13.552630199992564	0.050130799994803965
0	9.08781799999997	stim	195		2	ambiguous_practice	ambiguous_practice	0.0	preferred_right	300.0	0.0		13.602760999987368	0.0493815999943763
0	9.137199599994346	stim	196		2	ambiguous_practice	ambiguous_practice	0.0	preferred_right	300.0	0.0		13.652142599981744	0.05146839999360964
0	9.188667999987956	stim	197		2	ambiguous_practice	ambiguous_practice	0.0	preferred_right	300.0	0.0		13.703610999975353	0.06624590000137687
0	9.254913899989333	stim	198		2	ambiguous_practice	ambiguous_practice	0.0	preferred_right	300.0	0.0		13.76985689997673	0.0662745000445284
0	9.321188400033861	stim	199		2	ambiguous_practice	ambiguous_practice	0.0	preferred_right	300.0	0.0		13.836131400021259	0.04735079995589331
0	9.368539199989755	stim	200		2	ambiguous_practice	ambiguous_practice	0.0	preferred_right	300.0	0.0		13.883482199977152	0.050022600044030696
0	9.418561800033785	stim	201		2	ambiguous_practice	ambiguous_practice	0.0	preferred_right	300.0	0.0		13.933504800021183	0.05033589998492971
0	9.468897700018715	stim	202		2	ambiguous_practice	ambiguous_practice	0.0	preferred_right	300.0	0.0		13.983840700006112	0.051133700006175786
0	9.520031400024891	stim	203		2	ambiguous_practice	ambiguous_practice	0.0	preferred_right	300.0	0.0		14.034974400012288	0.05010499997297302
0	9.570136399997864	stim	204		2	ambiguous_practice	ambiguous_practice	0.0	preferred_right	300.0	0.0		14.085079399985261	0.050350000034086406
0	9.62048640003195	stim	205		2	ambiguous_practice	ambiguous_practice	0.0	preferred_right	300.0	0.0		14.135429400019348	0.050259699986781925
0	9.670746100018732	stim	206		2	ambiguous_practice	ambiguous_practice	0.0	preferred_right	300.0	0.0		14.18568910000613	0.06523389997892082
0	9.735979999997653	stim	207		2	ambiguous_practice	ambiguous_practice	0.0	preferred_right	300.0	0.0		14.25092299998505	0.050049200013745576
0	9.786029200011399	stim	208		2	ambiguous_practice	ambiguous_practice	0.0	preferred_right	300.0	0.0		14.300972199998796	0.05027499998686835
0	9.836304199998267	stim	209		2	ambiguous_practice	ambiguous_practice	0.0	preferred_right	300.0	0.0		14.351247199985664	0.050419699982739985
0	9.886723899981007	stim	210		2	ambiguous_practice	ambiguous_practice	0.0	preferred_right	300.0	0.0		14.401666899968404	0.05000110005494207
0	9.936725000035949	stim	211		2	ambiguous_practice	ambiguous_practice	0.0	preferred_right	300.0	0.0		14.451668000023346	0.04988259996753186
0	9.986607600003481	stim	212		2	ambiguous_practice	ambiguous_practice	0.0	preferred_right	300.0	0.0		14.501550599990878	0.05091669998364523
0	10.037524299987126	stim	213		2	ambiguous_practice	ambiguous_practice	0.0	preferred_right	300.0	0.0		14.552467299974523	0.049028500041458756
0	10.086552800028585	stim	214		2	ambiguous_practice	ambiguous_practice	0.0	preferred_right	300.0	0.0		14.601495800015982	0.05023379996418953
0	10.136786599992774	stim	215		2	ambiguous_practice	ambiguous_practice	0.0	preferred_right	300.0	0.0		14.651729599980172	0.05041339999297634
0	10.18719999998575	stim	216		2	ambiguous_practice	ambiguous_practice	0.0	preferred_right	300.0	0.0		14.702142999973148	0.049323200015351176
0	10.236523200001102	stim	217		2	ambiguous_practice	ambiguous_practice	0.0	preferred_right	300.0	0.0		14.7514661999885	0.05033490003552288
0	10.286858100036625	stim	218		2	ambiguous_practice	ambiguous_practice	0.0	preferred_right	300.0	0.0		14.801801100024022	0.050218299962580204
0	10.337076399999205	stim	219		2	ambiguous_practice	ambiguous_practice	0.0	preferred_right	300.0	0.0		14.852019399986602	0.049998999980743974
0	10.387075399979949	stim	220		2	ambiguous_practice	ambiguous_practice	0.0	preferred_right	300.0	0.0		14.902018399967346	0.0503006000071764
0	10.437375999987125	stim	221		2	ambiguous_practice	ambiguous_practice	0.0	preferred_right	300.0	0.0		14.952318999974523	0.04971400002250448
0	10.48709000000963	stim	222		2	ambiguous_practice	ambiguous_practice	0.0	preferred_right	300.0	0.0		15.002032999997027	0.0501022000098601
0	10.53719220001949	stim	223		2	ambiguous_practice	ambiguous_practice	0.0	preferred_right	300.0	0.0		15.052135200006887	0.05015979998279363
0	10.587352000002284	stim	224		2	ambiguous_practice	ambiguous_practice	0.0	preferred_right	300.0	0.0		15.102294999989681	0.05039859999669716
0	10.63775059999898	stim	225		2	ambiguous_practice	ambiguous_practice	0.0	preferred_right	300.0	0.0		15.152693599986378	0.05028540000785142
0	10.688036000006832	stim	226		2	ambiguous_practice	ambiguous_practice	0.0	preferred_right	300.0	0.0		15.20297899999423	0.05059719999553636
0	10.738633200002369	stim	227		2	ambiguous_practice	ambiguous_practice	0.0	preferred_right	300.0	0.0		15.253576199989766	0.0511005999869667
0	10.789733799989335	stim	228		2	ambiguous_practice	ambiguous_practice	0.0	preferred_right	300.0	0.0		15.304676799976733	0.06588470004498959
0	10.855618500034325	stim	229		2	ambiguous_practice	ambiguous_practice	0.0	preferred_right	300.0	0.0		15.370561500021722	0.05039389996090904
0	10.906012399995234	stim	230		2	ambiguous_practice	ambiguous_practice	0.0	preferred_right	300.0	0.0		15.420955399982631	0.05058909999206662
0	10.9566014999873	stim	231		2	ambiguous_practice	ambiguous_practice	0.0	preferred_right	300.0	0.0		15.471544499974698	0.04921760002616793
0	11.005819100013468	stim	232		2	ambiguous_practice	ambiguous_practice	0.0	preferred_right	300.0	0.0		15.520762100000866	0.050548399973195046
0	11.056367499986663	stim	233		2	ambiguous_practice	ambiguous_practice	0.0	preferred_right	300.0	0.0		15.57131049997406	0.06617080001160502
0	11.122538299998268	stim	234		2	ambiguous_practice	ambiguous_practice	0.0	preferred_right	300.0	0.0		15.637481299985666	0.051069999986793846
0	11.173608299985062	stim	235		2	ambiguous_practice	ambiguous_practice	0.0	preferred_right	300.0	0.0		15.68855129997246	0.049104000034276396
0	11.222712300019339	stim	236		2	ambiguous_practice	ambiguous_practice	0.0	preferred_right	300.0	0.0		15.737655300006736	0.05000819999258965
0	11.272720500011928	stim	237		2	ambiguous_practice	ambiguous_practice	0.0	preferred_right	300.0	0.0		15.787663499999326	0.04992309998488054
0	11.322643599996809	stim	238		2	ambiguous_practice	ambiguous_practice	0.0	preferred_right	300.0	0.0		15.837586599984206	0.05121430003782734
0	11.373857900034636	stim	239		2	ambiguous_practice	ambiguous_practice	0.0	preferred_right	300.0	0.0		15.888800900022034	0.06560729996999726
0	11.439465200004634	stim	240		2	ambiguous_practice	ambiguous_practice	0.0	preferred_right	300.0	0.0		15.95440819999203	0.05091290001291782
0	11.490378100017551	stim	241		2	ambiguous_practice	ambiguous_practice	0.0	preferred_right	300.0	0.0		16.00532110000495	0.06567939999513328
0	11.556057500012685	stim	242		2	ambiguous_practice	ambiguous_practice	0.0	preferred_right	300.0	0.0		16.071000500000082	0.04989339999156073
0	11.605950900004245	stim	243		2	ambiguous_practice	ambiguous_practice	0.0	preferred_right	300.0	0.0		16.120893899991643	0.05000899999868125
0	11.655959900002927	stim	244		2	ambiguous_practice	ambiguous_practice	0.0	preferred_right	300.0	0.0		16.170902899990324	0.05006670003058389
0	11.70602660003351	stim	245		2	ambiguous_practice	ambiguous_practice	0.0	preferred_right	300.0	0.0		16.220969600020908	0.0498096999945119
0	11.755836300028022	stim	246		2	ambiguous_practice	ambiguous_practice	0.0	preferred_right	300.0	0.0		16.27077930001542	0.05047529999865219
0	11.806311600026675	stim	247		2	ambiguous_practice	ambiguous_practice	0.0	preferred_right	300.0	0.0		16.321254600014072	0.049929099972359836
0	11.856240699999034	stim	248		2	ambiguous_practice	ambiguous_practice	0.0	preferred_right	300.0	0.0		16.37118369998643	0.04998990002786741
0	11.906230600026902	stim	249		2	ambiguous_practice	ambiguous_practice	0.0	preferred_right	300.0	0.0		16.4211736000143	0.050020999973639846
0	11.956251600000542	stim	250		2	ambiguous_practice	ambiguous_practice	0.0	preferred_right	300.0	0.0		16.47119459998794	0.049936600029468536
0	12.00618820003001	stim	251		2	ambiguous_practice	ambiguous_practice	0.0	preferred_right	300.0	0.0		16.521131200017408	0.04948389995843172
0	12.055672099988442	stim	252		2	ambiguous_practice	ambiguous_practice	0.0	preferred_right	300.0	0.0		16.57061509997584	0.05056820000754669
0	12.106240299995989	stim	253		2	ambiguous_practice	ambiguous_practice	0.0	preferred_right	300.0	0.0		16.621183299983386	0.04991270002210513
0	12.156153000018094	stim	254		2	ambiguous_practice	ambiguous_practice	0.0	preferred_right	300.0	0.0		16.67109600000549	0.05045410001184791
0	12.206607100029942	stim	255		2	ambiguous_practice	ambiguous_practice	0.0	preferred_right	300.0	0.0		16.72155010001734	0.05019869998795912
0	12.2568058000179	stim	256		2	ambiguous_practice	ambiguous_practice	0.0	preferred_right	300.0	0.0		16.771748800005298	0.050202000013086945
0	12.307007800030988	stim	257		2	ambiguous_practice	ambiguous_practice	0.0	preferred_right	300.0	0.0		16.821950800018385	0.05117309995694086
0	12.358180899987929	stim	258		2	ambiguous_practice	ambiguous_practice	0.0	preferred_right	300.0	0.0		16.873123899975326	0.05030800000531599
0	12.408488899993245	stim	259		2	ambiguous_practice	ambiguous_practice	0.0	preferred_right	300.0	0.0		16.923431899980642	0.05023400002392009
0	12.458722900017165	stim	260		2	ambiguous_practice	ambiguous_practice	0.0	preferred_right	300.0	0.0		16.973665900004562	0.05038520001107827
0	12.509108100028243	stim	261		2	ambiguous_practice	ambiguous_practice	0.0	preferred_right	300.0	0.0		17.02405110001564	0.0495983999571763
0	12.55870649998542	stim	262		2	ambiguous_practice	ambiguous_practice	0.0	preferred_right	300.0	0.0		17.073649499972817	0.06668560003163293
0	12.625392100017052	stim	263		2	ambiguous_practice	ambiguous_practice	0.0	preferred_right	300.0	0.0		17.14033510000445	0.04993619996821508
0	12.675328299985267	stim	264		2	ambiguous_practice	ambiguous_practice	0.0	preferred_right	300.0	0.0		17.190271299972665	0.050083400041330606
0	12.725411700026598	stim	265		2	ambiguous_practice	ambiguous_practice	0.0	preferred_right	300.0	0.0		17.240354700013995	0.05065190000459552
0	12.776063600031193	stim	266		2	ambiguous_practice	ambiguous_practice	0.0	preferred_right	300.0	0.0		17.29100660001859	0.049425599980168045
0	12.825489200011361	stim	267		2	ambiguous_practice	ambiguous_practice	0.0	preferred_right	300.0	0.0		17.34043219999876	0.06689610000466928
0	12.89238530001603	stim	268		2	ambiguous_practice	ambiguous_practice	0.0	preferred_right	300.0	0.0		17.407328300003428	0.06607549998443574
0	12.958460800000466	stim	269		2	ambiguous_practice	ambiguous_practice	0.0	preferred_right	300.0	0.0		17.473403799987864	0.04975360003300011
0	13.008214400033467	stim	270		2	ambiguous_practice	ambiguous_practice	0.0	preferred_right	300.0	0.0		17.523157400020864	0.050095299957320094
0	13.058309699990787	stim	271		2	ambiguous_practice	ambiguous_practice	0.0	preferred_right	300.0	0.0		17.573252699978184	0.05022500001359731
0	13.108534700004384	stim	272		2	ambiguous_practice	ambiguous_practice	0.0	preferred_right	300.0	0.0		17.62347769999178	0.04994180001085624
0	13.15847650001524	stim	273		2	ambiguous_practice	ambiguous_practice	0.0	preferred_right	300.0	0.0		17.673419500002638	0.04975110001396388
0	13.208227600029204	stim	274		2	ambiguous_practice	ambiguous_practice	0.0	preferred_right	300.0	0.0		17.7231706000166	0.05015540000749752
0	13.258383000036702	stim	275		2	ambiguous_practice	ambiguous_practice	0.0	preferred_right	300.0	0.0		17.7733260000241	0.04996829997980967
0	13.308351300016511	stim	276		2	ambiguous_practice	ambiguous_practice	0.0	preferred_right	300.0	0.0		17.82329430000391	0.05035719997249544
0	13.358708499989007	stim	277		2	ambiguous_practice	ambiguous_practice	0.0	preferred_right	300.0	0.0		17.873651499976404	0.049990300030913204
0	13.40869880001992	stim	278		2	ambiguous_practice	ambiguous_practice	0.0	preferred_right	300.0	0.0		17.923641800007317	0.05001599999377504
0	13.458714800013695	stim	279		2	ambiguous_practice	ambiguous_practice	0.0	preferred_right	300.0	0.0		17.973657800001092	0.050163500010967255
0	13.508878300024662	stim	280		2	ambiguous_practice	ambiguous_practice	0.0	preferred_right	300.0	0.0		18.02382130001206	0.049774999963119626
0	13.558653299987782	stim	281		2	ambiguous_practice	ambiguous_practice	0.0	preferred_right	300.0	0.0		18.07359629997518	0.05031270004110411
0	13.608966000028886	stim	282		2	ambiguous_practice	ambiguous_practice	0.0	preferred_right	300.0	0.0		18.123909000016283	0.03338539996184409
0	13.64235139999073	stim	283		2	ambiguous_practice	ambiguous_practice	0.0	preferred_right	300.0	0.0		18.157294399978127	0.049868600035551935
0	13.692220000026282	stim	284		2	ambiguous_practice	ambiguous_practice	0.0	preferred_right	300.0	0.0		18.20716300001368	0.05016589997103438
0	13.742385899997316	stim	285		2	ambiguous_practice	ambiguous_practice	0.0	preferred_right	300.0	0.0		18.257328899984714	0.05022030003601685
0	13.792606200033333	stim	286		2	ambiguous_practice	ambiguous_practice	0.0	preferred_right	300.0	0.0		18.30754920002073	0.04954749997705221
0	13.842153700010385	stim	287		2	ambiguous_practice	ambiguous_practice	0.0	preferred_right	300.0	0.0		18.357096699997783	0.034071800007950515
0	13.876225500018336	stim	288		2	ambiguous_practice	ambiguous_practice	0.0	preferred_right	300.0	0.0		18.391168500005733	0.033158999984152615
0	13.909384500002488	stim	289		2	ambiguous_practice	ambiguous_practice	0.0	preferred_right	300.0	0.0		18.424327499989886	0.03354079998098314
0	13.942925299983472	stim	290		2	ambiguous_practice	ambiguous_practice	0.0	preferred_right	300.0	0.0		18.45786829997087	0.03347810002742335
0	13.976403400010895	stim	291		2	ambiguous_practice	ambiguous_practice	0.0	preferred_right	300.0	0.0		18.491346399998292	0.03410930000245571
0	14.01051270001335	stim	292		2	ambiguous_practice	ambiguous_practice	0.0	preferred_right	300.0	0.0		18.525455700000748	0.04987930000061169
0	14.060392000013962	stim	293		2	ambiguous_practice	ambiguous_practice	0.0	preferred_right	300.0	0.0		18.57533500000136	0.06824110000161454
0	14.128633100015577	stim	294		2	ambiguous_practice	ambiguous_practice	0.0	preferred_right	300.0	0.0		18.643576100002974	0.048469899978954345
0	14.177102999994531	stim	295		2	ambiguous_practice	ambiguous_practice	0.0	preferred_right	300.0	0.0		18.69204599998193	0.06666050001513213
0	14.243763500009663	stim	296		2	ambiguous_practice	ambiguous_practice	0.0	preferred_right	300.0	0.0		18.75870649999706	0.051123399985954165
0	14.294886899995618	stim	297		2	ambiguous_practice	ambiguous_practice	0.0	preferred_right	300.0	0.0		18.809829899983015	0.06637040001805872
0	14.361257300013676	stim	298		2	ambiguous_practice	ambiguous_practice	0.0	preferred_right	300.0	0.0		18.876200300001074	0.06691429996863008
0	14.428171599982306	stim	299		2	ambiguous_practice	ambiguous_practice	0.0	preferred_right	300.0	0.0		18.943114599969704	0.04985900002066046
0	14.478030600002967	stim	0		2	unambiguous_practice	left_practice	0.0	preferred_right	84.0	0.0		18.992973599990364	0.050218100019264966
0	14.528248700022232	stim	1		2	unambiguous_practice	left_practice	0.0	preferred_right	84.0	0.0		19.04319170000963	0.049281899991910905
0	14.577530600014143	stim	2		2	unambiguous_practice	left_practice	0.0	preferred_right	84.0	0.0		19.09247360000154	0.05004589998861775
0	14.62757650000276	stim	3		2	unambiguous_practice	left_practice	0.0	preferred_right	84.0	0.0		19.142519499990158	0.05159980000462383
0	14.679176300007384	stim	4		2	unambiguous_practice	left_practice	0.0	preferred_right	84.0	0.0		19.19411929999478	0.04908570001134649
0	14.72826200001873	stim	5		2	unambiguous_practice	left_practice	0.0	preferred_right	84.0	0.0		19.243205000006128	0.05032549996394664
0	14.778587499982677	stim	6		2	unambiguous_practice	left_practice	0.0	preferred_right	84.0	0.0		19.293530499970075	0.06650740001350641
0	14.845094899996184	stim	7		2	unambiguous_practice	left_practice	0.0	preferred_right	84.0	0.0		19.36003789998358	0.06730080000124872
0	14.912395699997433	stim	8		2	unambiguous_practice	left_practice	0.0	preferred_right	84.0	0.0		19.42733869998483	0.05014220002340153
0	14.962537900020834	stim	9		2	unambiguous_practice	left_practice	0.0	preferred_right	84.0	0.0		19.47748090000823	0.06606420001480728
0	15.028602100035641	stim	10		2	unambiguous_practice	left_practice	0.0	preferred_right	84.0	0.0		19.54354510002304	0.05039509997004643
0	15.078997200005688	stim	11		2	unambiguous_practice	left_practice	0.0	preferred_right	84.0	0.0		19.593940199993085	0.06697169999824837
0	15.145968900003936	stim	12		2	unambiguous_practice	left_practice	0.0	preferred_right	84.0	0.0		19.660911899991333	0.05018760001985356
0	15.19615650002379	stim	13		2	unambiguous_practice	left_practice	0.0	preferred_right	84.0	0.0		19.711099500011187	0.06649309996282682
0	15.262649599986617	stim	14		2	unambiguous_practice	left_practice	0.0	preferred_right	84.0	0.0		19.777592599974014	0.04919819999486208
0	15.311847799981479	stim	15		2	unambiguous_practice	left_practice	0.0	preferred_right	84.0	0.0		19.826790799968876	0.05094460002146661
0	15.362792400002945	stim	16		2	unambiguous_practice	left_practice	0.0	preferred_right	84.0	0.0		19.877735399990343	0.06685190001735464
0	15.4296443000203	stim	17		2	unambiguous_practice	left_practice	0.0	preferred_right	84.0	0.0		19.944587300007697	0.06712510000215843
0	15.496769400022458	stim	18		2	unambiguous_practice	left_practice	0.0	preferred_right	84.0	0.0		20.011712400009856	0.049755899992305785
0	15.546525300014764	stim	19		2	unambiguous_practice	left_practice	0.0	preferred_right	84.0	0.0		20.06146830000216	0.06685349997133017
0	15.613378799986094	stim	20		2	unambiguous_practice	left_practice	0.0	preferred_right	84.0	0.0		20.12832179997349	0.05055240000365302
0	15.663931199989747	stim	21		2	unambiguous_practice	left_practice	0.0	preferred_right	84.0	0.0		20.178874199977145	0.06746330001624301
0	15.73139450000599	stim	22		2	unambiguous_practice	left_practice	0.0	preferred_right	84.0	0.0		20.246337499993388	0.04915219999384135
0	15.780546699999832	stim	23		2	unambiguous_practice	left_practice	0.0	preferred_right	84.0	0.0		20.29548969998723	0.06660570000531152
0	15.847152400005143	stim	24		2	unambiguous_practice	left_practice	0.0	preferred_right	84.0	0.0		20.36209539999254	0.05000980000477284
0	15.897162200009916	stim	25		2	unambiguous_practice	left_practice	0.0	preferred_right	84.0	0.0		20.412105199997313	0.0503317000111565
0	15.947493900021072	stim	26		2	unambiguous_practice	left_practice	0.0	preferred_right	84.0	0.0		20.46243690000847	0.049589900008868426
0	15.997083800029941	stim	27		2	unambiguous_practice	left_practice	0.0	preferred_right	84.0	0.0		20.51202680001734	0.06747639999957755
0	16.06456020002952	stim	28		2	unambiguous_practice	left_practice	0.0	preferred_right	84.0	0.0		20.579503200016916	0.04957159998593852
0	16.114131800015457	stim	29		2	unambiguous_practice	left_practice	0.0	preferred_right	84.0	0.0		20.629074800002854	0.04850480001186952
0	16.162636600027326	stim	30		2	unambiguous_practice	left_practice	0.0	preferred_right	84.0	0.0		20.677579600014724	0.05055129999527708
0	16.213187900022604	stim	31		2	unambiguous_practice	left_practice	0.0	preferred_right	84.0	0.0		20.72813090001	0.0501384999952279
0	16.26332640001783	stim	32		2	unambiguous_practice	left_practice	0.0	preferred_right	84.0	0.0		20.77826940000523	0.04989309998927638
0	16.313219500007108	stim	33		2	unambiguous_practice	left_practice	0.0	preferred_right	84.0	0.0		20.828162499994505	0.051391499990131706
0	16.36461099999724	stim	34		2	unambiguous_practice	left_practice	0.0	preferred_right	84.0	0.0		20.879553999984637	0.06649320002179593
0	16.431104200019035	stim	35		2	unambiguous_practice	left_practice	0.0	preferred_right	84.0	0.0		20.946047200006433	0.05032549996394664
0	16.481429699982982	stim	36		2	unambiguous_practice	left_practice	0.0	preferred_right	84.0	0.0		20.99637269997038	0.06584610004210845
0	16.54727580002509	stim	37		2	unambiguous_practice	left_practice	0.0	preferred_right	84.0	0.0		21.062218800012488	0.05139350000536069
0	16.59866930003045	stim	38		2	unambiguous_practice	left_practice	0.0	preferred_right	84.0	0.0		21.11361230001785	0.04994899994926527
0	16.648618299979717	stim	39		2	unambiguous_practice	left_practice	0.0	preferred_right	84.0	0.0		21.163561299967114	0.05017620004946366
0	16.69879450002918	stim	40		2	unambiguous_practice	left_practice	0.0	preferred_right	84.0	0.0		21.213737500016578	0.06620209995890036
0	16.76499659998808	stim	41		2	unambiguous_practice	left_practice	0.0	preferred_right	84.0	0.0		21.279939599975478	0.06707849999656901
0	16.83207509998465	stim	42		2	unambiguous_practice	left_practice	0.0	preferred_right	84.0	0.0		21.347018099972047	0.05016990000149235
0	16.882244999986142	stim	43		2	unambiguous_practice	left_practice	0.0	preferred_right	84.0	0.0		21.39718799997354	0.050814100017305464
0	16.933059100003447	stim	44		2	unambiguous_practice	left_practice	0.0	preferred_right	84.0	0.0		21.448002099990845	0.049271500029135495
0	16.982330600032583	stim	45		2	unambiguous_practice	left_practice	0.0	preferred_right	84.0	0.0		21.49727360001998	0.049982699973043054
0	17.032313300005626	stim	46		2	unambiguous_practice	left_practice	0.0	preferred_right	84.0	0.0		21.547256299993023	0.06655970000429079
0	17.098873000009917	stim	47		2	unambiguous_practice	left_practice	0.0	preferred_right	84.0	0.0		21.613815999997314	0.05035340000176802
0	17.149226400011685	stim	48		2	unambiguous_practice	left_practice	0.0	preferred_right	84.0	0.0		21.664169399999082	0.04982179997023195
0	17.199048199981917	stim	49		2	unambiguous_practice	left_practice	0.0	preferred_right	84.0	0.0		21.713991199969314	0.05022370000369847
0	17.249271899985615	stim	50		2	unambiguous_practice	left_practice	0.0	preferred_right	84.0	0.0		21.764214899973013	0.04992700001457706
0	17.299198900000192	stim	51		2	unambiguous_practice	left_practice	0.0	preferred_right	84.0	0.0		21.81414189998759	0.06690520001575351
0	17.366104100015946	stim	52		2	unambiguous_practice	left_practice	0.0	preferred_right	84.0	0.0		21.881047100003343	0.06830599997192621
0	17.434410099987872	stim	53		2	unambiguous_practice	left_practice	0.0	preferred_right	84.0	0.0		21.94935309997527	0.050259800045751035
0	17.484669900033623	stim	54		2	unambiguous_practice	left_practice	0.0	preferred_right	84.0	0.0		21.99961290002102	0.06496429996332154
0	17.549634199996945	stim	55		2	unambiguous_practice	left_practice	0.0	preferred_right	84.0	0.0		22.064577199984342	0.05036980001023039
0	17.600004000007175	stim	56		2	unambiguous_practice	left_practice	0.0	preferred_right	84.0	0.0		22.114946999994572	0.05234539997763932
0	17.652349399984814	stim	57		2	unambiguous_practice	left_practice	0.0	preferred_right	84.0	0.0		22.16729239997221	0.06696359999477863
0	17.719312999979593	stim	58		2	unambiguous_practice	left_practice	0.0	preferred_right	84.0	0.0		22.23425599996699	0.06648150004912168
0	17.785794500028715	stim	59		2	unambiguous_practice	left_practice	0.0	preferred_right	84.0	0.0		22.300737500016112	0.04857919999631122
0	17.834373700025026	stim	60		2	unambiguous_practice	left_practice	0.0	preferred_right	84.0	0.0		22.349316700012423	0.0518572999862954
0	17.88623100001132	stim	61		2	unambiguous_practice	left_practice	0.0	preferred_right	84.0	0.0		22.40117399999872	0.05034760001581162
0	17.936578600027133	stim	62		2	unambiguous_practice	left_practice	0.0	preferred_right	84.0	0.0		22.45152160001453	0.06390889995964244
0	18.000487499986775	stim	63		2	unambiguous_practice	left_practice	0.0	preferred_right	84.0	0.0		22.515430499974173	0.0671040000161156
0	18.06759150000289	stim	64		2	unambiguous_practice	left_practice	0.0	preferred_right	84.0	0.0		22.582534499990288	0.05001160001847893
0	18.11760310002137	stim	65		2	unambiguous_practice	left_practice	0.0	preferred_right	84.0	0.0		22.632546100008767	0.05045129999052733
0	18.168054400011897	stim	66		2	unambiguous_practice	left_practice	0.0	preferred_right	84.0	0.0		22.682997399999294	0.050099899992346764
0	18.218154300004244	stim	67		2	unambiguous_practice	left_practice	0.0	preferred_right	84.0	0.0		22.73309729999164	0.049287899979390204
0	18.267442199983634	stim	68		2	unambiguous_practice	left_practice	0.0	preferred_right	84.0	0.0		22.78238519997103	0.04985030001262203
0	18.317292499996256	stim	69		2	unambiguous_practice	left_practice	0.0	preferred_right	84.0	0.0		22.832235499983653	0.03359130001626909
0	18.350883800012525	stim	70		2	unambiguous_practice	left_practice	0.0	preferred_right	84.0	0.0		22.865826799999923	0.05035039997892454
0	18.40123419999145	stim	71		2	unambiguous_practice	left_practice	0.0	preferred_right	84.0	0.0		22.916177199978847	0.0492396000190638
0	18.450473800010514	stim	72		2	unambiguous_practice	left_practice	0.0	preferred_right	84.0	0.0		22.96541679999791	0.05068009998649359
0	18.501153899997007	stim	73		2	unambiguous_practice	left_practice	0.0	preferred_right	84.0	0.0		23.016096899984404	0.049720400013029575
0	18.550874300010037	stim	74		2	unambiguous_practice	left_practice	0.0	preferred_right	84.0	0.0		23.065817299997434	0.0503807999775745
0	18.60125509998761	stim	75		2	unambiguous_practice	left_practice	0.0	preferred_right	84.0	0.0		23.11619809997501	0.05019219999667257
0	18.651447299984284	stim	76		2	unambiguous_practice	left_practice	0.0	preferred_right	84.0	0.0		23.16639029997168	0.049979900009930134
0	18.701427199994214	stim	77		2	unambiguous_practice	left_practice	0.0	preferred_right	84.0	0.0		23.21637019998161	0.04986680002184585
0	18.75129400001606	stim	78		2	unambiguous_practice	left_practice	0.0	preferred_right	84.0	0.0		23.266237000003457	0.04952870000852272
0	18.800822700024582	stim	79		2	unambiguous_practice	left_practice	0.0	preferred_right	84.0	0.0		23.31576570001198	0.050585599965415895
0	18.85140829999	stim	80		2	unambiguous_practice	left_practice	0.0	preferred_right	84.0	0.0		23.366351299977396	0.05127430002903566
0	18.902682600019034	stim	81		2	unambiguous_practice	left_practice	0.0	preferred_right	84.0	0.0		23.41762560000643	0.05063249997328967
0	18.953315099992324	stim	82		2	unambiguous_practice	left_practice	0.0	preferred_right	84.0	0.0		23.46825809997972	0.05077160004293546
0	19.00408670003526	stim	83		2	unambiguous_practice	left_practice	0.0	preferred_right	84.0	0.0		23.519029700022656	0.049793199985288084
0	19.053879900020547	stim	0		2	unambiguous_practice	left_practice	0.0	preferred_right	88.0	84.0		23.568822900007945	0.06641209998633713
0	19.120292000006884	stim	1		2	unambiguous_practice	left_practice	0.0	preferred_right	88.0	84.0		23.63523499999428	0.04948970000259578
0	19.16978170000948	stim	2		2	unambiguous_practice	left_practice	0.0	preferred_right	88.0	84.0		23.684724699996877	0.05118609999772161
0	19.2209678000072	stim	3		2	unambiguous_practice	left_practice	0.0	preferred_right	88.0	84.0		23.7359107999946	0.04932739998912439
0	19.270295199996326	stim	4		2	unambiguous_practice	left_practice	0.0	preferred_right	88.0	84.0		23.785238199983723	0.050572600041050464
0	19.320867800037377	stim	5		2	unambiguous_practice	left_practice	0.0	preferred_right	88.0	84.0		23.835810800024774	0.04811539995716885
0	19.368983199994545	stim	6		2	unambiguous_practice	left_practice	0.0	preferred_right	88.0	84.0		23.883926199981943	0.050108600000385195
0	19.41909179999493	stim	7		2	unambiguous_practice	left_practice	0.0	preferred_right	88.0	84.0		23.934034799982328	0.05071989999851212
0	19.469811699993443	stim	8		2	unambiguous_practice	left_practice	0.0	preferred_right	88.0	84.0		23.98475469998084	0.050791600020602345
0	19.520603300014045	stim	9		2	unambiguous_practice	left_practice	0.0	preferred_right	88.0	84.0		24.035546300001442	0.04958069999702275
0	19.570184000011068	stim	10		2	unambiguous_practice	left_practice	0.0	preferred_right	88.0	84.0		24.085126999998465	0.05044760002056137
0	19.62063160003163	stim	11		2	unambiguous_practice	left_practice	0.0	preferred_right	88.0	84.0		24.135574600019027	0.0498960999539122
0	19.67052769998554	stim	12		2	unambiguous_practice	left_practice	0.0	preferred_right	88.0	84.0		24.18547069997294	0.06575340003473684
0	19.73628110002028	stim	13		2	unambiguous_practice	left_practice	0.0	preferred_right	88.0	84.0		24.251224100007676	0.050704399996902794
0	19.78698550001718	stim	14		2	unambiguous_practice	left_practice	0.0	preferred_right	88.0	84.0		24.30192850000458	0.05095810000784695
0	19.837943600025028	stim	15		2	unambiguous_practice	left_practice	0.0	preferred_right	88.0	84.0		24.352886600012425	0.04813259997172281
0	19.88607619999675	stim	16		2	unambiguous_practice	left_practice	0.0	preferred_right	88.0	84.0		24.401019199984148	0.051313400035724044
0	19.937389600032475	stim	17		2	unambiguous_practice	left_practice	0.0	preferred_right	88.0	84.0		24.452332600019872	0.050062700000125915
0	19.9874523000326	stim	18		2	unambiguous_practice	left_practice	0.0	preferred_right	88.0	84.0		24.502395300019998	0.06647919997340068
0	20.053931500006	stim	19		2	unambiguous_practice	left_practice	0.0	preferred_right	88.0	84.0		24.5688744999934	0.05025349999777973
0	20.10418500000378	stim	20		2	unambiguous_practice	left_practice	0.0	preferred_right	88.0	84.0		24.61912799999118	0.05037010001251474
0	20.154555100016296	stim	21		2	unambiguous_practice	left_practice	0.0	preferred_right	88.0	84.0		24.669498100003693	0.049659500014968216
0	20.204214600031264	stim	22		2	unambiguous_practice	left_practice	0.0	preferred_right	88.0	84.0		24.71915760001866	0.05061489995568991
0	20.254829499986954	stim	23		2	unambiguous_practice	left_practice	0.0	preferred_right	88.0	84.0		24.76977249997435	0.048271600040607154
0	20.30310110002756	stim	24		2	unambiguous_practice	left_practice	0.0	preferred_right	88.0	84.0		24.81804410001496	0.0337992999702692
0	20.33690039999783	stim	25		2	unambiguous_practice	left_practice	0.0	preferred_right	88.0	84.0		24.851843399985228	0.03339420002885163
0	20.370294600026682	stim	26		2	unambiguous_practice	left_practice	0.0	preferred_right	88.0	84.0		24.88523760001408	0.033508499967865646
0	20.403803099994548	stim	27		2	unambiguous_practice	left_practice	0.0	preferred_right	88.0	84.0		24.918746099981945	0.05004260002169758
0	20.453845700016245	stim	28		2	unambiguous_practice	left_practice	0.0	preferred_right	88.0	84.0		24.968788700003643	0.0500824999762699
0	20.503928199992515	stim	29		2	unambiguous_practice	left_practice	0.0	preferred_right	88.0	84.0		25.018871199979912	0.05066770000848919
0	20.554595900001004	stim	30		2	unambiguous_practice	left_practice	0.0	preferred_right	88.0	84.0		25.0695388999884	0.04950439999811351
0	20.604100299999118	stim	31		2	unambiguous_practice	left_practice	0.0	preferred_right	88.0	84.0		25.119043299986515	0.033379700034856796
0	20.637480000033975	stim	32		2	unambiguous_practice	left_practice	0.0	preferred_right	88.0	84.0		25.152423000021372	0.03358319995459169
0	20.671063199988566	stim	33		2	unambiguous_practice	left_practice	0.0	preferred_right	88.0	84.0		25.186006199975964	0.03338979999534786
0	20.704452999983914	stim	34		2	unambiguous_practice	left_practice	0.0	preferred_right	88.0	84.0		25.21939599997131	0.03322920005302876
0	20.737682200036943	stim	35		2	unambiguous_practice	left_practice	0.0	preferred_right	88.0	84.0		25.25262520002434	0.03350959997624159
0	20.771191800013185	stim	36		2	unambiguous_practice	left_practice	0.0	preferred_right	88.0	84.0		25.286134800000582	0.03283969999756664
0	20.80403150001075	stim	37		2	unambiguous_practice	left_practice	0.0	preferred_right	88.0	84.0		25.31897449999815	0.03333960002055392
0	20.837371100031305	stim	38		2	unambiguous_practice	left_practice	0.0	preferred_right	88.0	84.0		25.352314100018702	0.05045759998029098
0	20.887828700011596	stim	39		2	unambiguous_practice	left_practice	0.0	preferred_right	88.0	84.0		25.402771699998993	0.03343369998037815
0	20.921262399991974	stim	40		2	unambiguous_practice	left_practice	0.0	preferred_right	88.0	84.0		25.43620539997937	0.03360530000645667
0	20.95486769999843	stim	41		2	unambiguous_practice	left_practice	0.0	preferred_right	88.0	84.0		25.46981069998583	0.03357199998572469
0	20.988439699984156	stim	42		2	unambiguous_practice	left_practice	0.0	preferred_right	88.0	84.0		25.503382699971553	0.033362000016495585
0	21.02180170000065	stim	43		2	unambiguous_practice	left_practice	0.0	preferred_right	88.0	84.0		25.53674469998805	0.049509799981024116
0	21.071311499981675	stim	44		2	unambiguous_practice	left_practice	0.0	preferred_right	88.0	84.0		25.586254499969073	0.05176390003180131
0	21.123075400013477	stim	45		2	unambiguous_practice	left_practice	0.0	preferred_right	88.0	84.0		25.638018400000874	0.0499963000183925
0	21.17307170003187	stim	46		2	unambiguous_practice	left_practice	0.0	preferred_right	88.0	84.0		25.688014700019266	0.05027559999143705
0	21.223347300023306	stim	47		2	unambiguous_practice	left_practice	0.0	preferred_right	88.0	84.0		25.738290300010704	0.049933800008147955
0	21.273281100031454	stim	48		2	unambiguous_practice	left_practice	0.0	preferred_right	88.0	84.0		25.78822410001885	0.05005889997119084
0	21.323340000002645	stim	49		2	unambiguous_practice	left_practice	0.0	preferred_right	88.0	84.0		25.838282999990042	0.04994160000933334
0	21.37328160001198	stim	50		2	unambiguous_practice	left_practice	0.0	preferred_right	88.0	84.0		25.888224599999376	0.06652459996985272
0	21.43980619998183	stim	51		2	unambiguous_practice	left_practice	0.0	preferred_right	88.0	84.0		25.95474919996923	0.050293800013605505
0	21.490099999995437	stim	52		2	unambiguous_practice	left_practice	0.0	preferred_right	88.0	84.0		26.005042999982834	0.050104000023566186
0	21.540204000019003	stim	53		2	unambiguous_practice	left_practice	0.0	preferred_right	88.0	84.0		26.0551470000064	0.049294899974484
0	21.589498899993487	stim	54		2	unambiguous_practice	left_practice	0.0	preferred_right	88.0	84.0		26.104441899980884	0.050535299989860505
0	21.640034199983347	stim	55		2	unambiguous_practice	left_practice	0.0	preferred_right	88.0	84.0		26.154977199970745	0.04971660004230216
0	21.68975080002565	stim	56		2	unambiguous_practice	left_practice	0.0	preferred_right	88.0	84.0		26.204693800013047	0.05073269997956231
0	21.74048350000521	stim	57		2	unambiguous_practice	left_practice	0.0	preferred_right	88.0	84.0		26.25542649999261	0.05074480001349002
0	21.7912283000187	stim	58		2	unambiguous_practice	left_practice	0.0	preferred_right	88.0	84.0		26.3061713000061	0.049699599971063435
0	21.840927899989765	stim	59		2	unambiguous_practice	left_practice	0.0	preferred_right	88.0	84.0		26.355870899977162	0.06697560002794489
0	21.90790350001771	stim	60		2	unambiguous_practice	left_practice	0.0	preferred_right	88.0	84.0		26.422846500005107	0.05004170001484454
0	21.957945200032555	stim	61		2	unambiguous_practice	left_practice	0.0	preferred_right	88.0	84.0		26.472888200019952	0.050152999989222735
0	22.008098200021777	stim	62		2	unambiguous_practice	left_practice	0.0	preferred_right	88.0	84.0		26.523041200009175	0.049400399962905794
0	22.057498599984683	stim	63		2	unambiguous_practice	left_practice	0.0	preferred_right	88.0	84.0		26.57244159997208	0.05040540004847571
0	22.10790400003316	stim	64		2	unambiguous_practice	left_practice	0.0	preferred_right	88.0	84.0		26.622847000020556	0.05100439995294437
0	22.158908399986103	stim	65		2	unambiguous_practice	left_practice	0.0	preferred_right	88.0	84.0		26.6738513999735	0.04938929999480024
0	22.208297699980903	stim	66		2	unambiguous_practice	left_practice	0.0	preferred_right	88.0	84.0		26.7232406999683	0.049948800005950034
0	22.258246499986853	stim	67		2	unambiguous_practice	left_practice	0.0	preferred_right	88.0	84.0		26.77318949997425	0.06699120003031567
0	22.32523770001717	stim	68		2	unambiguous_practice	left_practice	0.0	preferred_right	88.0	84.0		26.840180700004566	0.06689409998944029
0	22.39213180000661	stim	69		2	unambiguous_practice	left_practice	0.0	preferred_right	88.0	84.0		26.907074799994007	0.0664585999911651
0	22.458590399997775	stim	70		2	unambiguous_practice	left_practice	0.0	preferred_right	88.0	84.0		26.973533399985172	0.05000540002947673
0	22.50859580002725	stim	71		2	unambiguous_practice	left_practice	0.0	preferred_right	88.0	84.0		27.02353880001465	0.06756070000119507
0	22.576156500028446	stim	72		2	unambiguous_practice	left_practice	0.0	preferred_right	88.0	84.0		27.091099500015844	0.04987399996025488
0	22.6260304999887	stim	73		2	unambiguous_practice	left_practice	0.0	preferred_right	88.0	84.0		27.1409734999761	0.05050220002885908
0	22.67653270001756	stim	74		2	unambiguous_practice	left_practice	0.0	preferred_right	88.0	84.0		27.191475700004958	0.0500768999918364
0	22.726609600009397	stim	75		2	unambiguous_practice	left_practice	0.0	preferred_right	88.0	84.0		27.241552599996794	0.06649310002103448
0	22.79310270003043	stim	76		2	unambiguous_practice	left_practice	0.0	preferred_right	88.0	84.0		27.30804570001783	0.049868599977344275
0	22.842971300007775	stim	77		2	unambiguous_practice	left_practice	0.0	preferred_right	88.0	84.0		27.357914299995173	0.06705080001847818
0	22.910022100026254	stim	78		2	unambiguous_practice	left_practice	0.0	preferred_right	88.0	84.0		27.42496510001365	0.06670099997427315
0	22.976723100000527	stim	79		2	unambiguous_practice	left_practice	0.0	preferred_right	88.0	84.0		27.491666099987924	0.05021190003026277
0	23.02693500003079	stim	80		2	unambiguous_practice	left_practice	0.0	preferred_right	88.0	84.0		27.541878000018187	0.05020539998076856
0	23.077140400011558	stim	81		2	unambiguous_practice	left_practice	0.0	preferred_right	88.0	84.0		27.592083399998955	0.050704399996902794
0	23.12784480000846	stim	82		2	unambiguous_practice	left_practice	0.0	preferred_right	88.0	84.0		27.642787799995858	0.06588000000920147
0	23.193724800017662	stim	83		2	unambiguous_practice	left_practice	0.0	preferred_right	88.0	84.0		27.70866780000506	0.049852099968120456
0	23.243576899985783	stim	84		2	unambiguous_practice	left_practice	0.0	preferred_right	88.0	84.0		27.75851989997318	0.050150000024586916
0	23.29372690001037	stim	85		2	unambiguous_practice	left_practice	0.0	preferred_right	88.0	84.0		27.808669899997767	0.0501508999732323
0	23.343877799983602	stim	86		2	unambiguous_practice	left_practice	0.0	preferred_right	88.0	84.0		27.858820799971	0.04981039999984205
0	23.393688199983444	stim	87		2	unambiguous_practice	left_practice	0.0	preferred_right	88.0	84.0		27.90863119997084	0.05042050004703924
0	23.444108700030483	stim	0		2	unambiguous_practice	left_practice	0.0	preferred_right	89.0	172.0		27.95905170001788	0.049658200005069375
0	23.493766900035553	stim	1		2	unambiguous_practice	left_practice	0.0	preferred_right	89.0	172.0		28.00870990002295	0.05049289995804429
0	23.544259799993597	stim	2		2	unambiguous_practice	left_practice	0.0	preferred_right	89.0	172.0		28.059202799980994	0.050271400017663836
0	23.59453120001126	stim	3		2	unambiguous_practice	left_practice	0.0	preferred_right	89.0	172.0		28.109474199998658	0.04972150002140552
0	23.644252700032666	stim	4		2	unambiguous_practice	left_practice	0.0	preferred_right	89.0	172.0		28.159195700020064	0.05036739999195561
0	23.694620100024622	stim	5		2	unambiguous_practice	left_practice	0.0	preferred_right	89.0	172.0		28.20956310001202	0.050432799966074526
0	23.745052899990696	stim	6		2	unambiguous_practice	left_practice	0.0	preferred_right	89.0	172.0		28.259995899978094	0.04853120003826916
0	23.793584100028966	stim	7		2	unambiguous_practice	left_practice	0.0	preferred_right	89.0	172.0		28.308527100016363	0.05021169997053221
0	23.843795799999498	stim	8		2	unambiguous_practice	left_practice	0.0	preferred_right	89.0	172.0		28.358738799986895	0.06790510000428185
0	23.91170090000378	stim	9		2	unambiguous_practice	left_practice	0.0	preferred_right	89.0	172.0		28.426643899991177	0.0505247000255622
0	23.962225600029342	stim	10		2	unambiguous_practice	left_practice	0.0	preferred_right	89.0	172.0		28.47716860001674	0.04976449999958277
0	24.011990100028925	stim	11		2	unambiguous_practice	left_practice	0.0	preferred_right	89.0	172.0		28.526933100016322	0.06659109995234758
0	24.078581199981272	stim	12		2	unambiguous_practice	left_practice	0.0	preferred_right	89.0	172.0		28.59352419996867	0.049926600011531264
0	24.128507799992803	stim	13		2	unambiguous_practice	left_practice	0.0	preferred_right	89.0	172.0		28.6434507999802	0.0501020000083372
0	24.17860980000114	stim	14		2	unambiguous_practice	left_practice	0.0	preferred_right	89.0	172.0		28.693552799988538	0.06661219999659806
0	24.24522199999774	stim	15		2	unambiguous_practice	left_practice	0.0	preferred_right	89.0	172.0		28.760164999985136	0.06613470002776012
0	24.3113567000255	stim	16		2	unambiguous_practice	left_practice	0.0	preferred_right	89.0	172.0		28.826299700012896	0.0529802999808453
0	24.364337000006344	stim	17		2	unambiguous_practice	left_practice	0.0	preferred_right	89.0	172.0		28.87927999999374	0.06408550002379343
0	24.428422500030138	stim	18		2	unambiguous_practice	left_practice	0.0	preferred_right	89.0	172.0		28.943365500017535	0.050917699991259724
0	24.479340200021397	stim	19		2	unambiguous_practice	left_practice	0.0	preferred_right	89.0	172.0		28.994283200008795	0.04992429999401793
0	24.529264500015415	stim	20		2	unambiguous_practice	left_practice	0.0	preferred_right	89.0	172.0		29.044207500002813	0.06724930001655594
0	24.59651380003197	stim	21		2	unambiguous_practice	left_practice	0.0	preferred_right	89.0	172.0		29.11145680001937	0.050030199985485524
0	24.646544000017457	stim	22		2	unambiguous_practice	left_practice	0.0	preferred_right	89.0	172.0		29.161487000004854	0.04999480000697076
0	24.696538800024427	stim	23		2	unambiguous_practice	left_practice	0.0	preferred_right	89.0	172.0		29.211481800011825	0.05082689999835566
0	24.747365700022783	stim	24		2	unambiguous_practice	left_practice	0.0	preferred_right	89.0	172.0		29.26230870001018	0.05025009997189045
0	24.797615799994674	stim	25		2	unambiguous_practice	left_practice	0.0	preferred_right	89.0	172.0		29.31255879998207	0.06728930003009737
0	24.86490510002477	stim	26		2	unambiguous_practice	left_practice	0.0	preferred_right	89.0	172.0		29.37984810001217	0.06686169997556135
0	24.931766800000332	stim	27		2	unambiguous_practice	left_practice	0.0	preferred_right	89.0	172.0		29.44670979998773	0.04974650003714487
0	24.981513300037477	stim	28		2	unambiguous_practice	left_practice	0.0	preferred_right	89.0	172.0		29.496456300024875	0.06614979996811599
0	25.047663100005593	stim	29		2	unambiguous_practice	left_practice	0.0	preferred_right	89.0	172.0		29.56260609999299	0.06784139998489991
0	25.115504499990493	stim	30		2	unambiguous_practice	left_practice	0.0	preferred_right	89.0	172.0		29.63044749997789	0.06682150001870468
0	25.182326000009198	stim	31		2	unambiguous_practice	left_practice	0.0	preferred_right	89.0	172.0		29.697268999996595	0.04953169997315854
0	25.231857699982356	stim	32		2	unambiguous_practice	left_practice	0.0	preferred_right	89.0	172.0		29.746800699969754	0.06474240001989529
0	25.29660010000225	stim	33		2	unambiguous_practice	left_practice	0.0	preferred_right	89.0	172.0		29.81154309998965	0.05064319999655709
0	25.34724329999881	stim	34		2	unambiguous_practice	left_practice	0.0	preferred_right	89.0	172.0		29.862186299986206	0.0513183000148274
0	25.398561600013636	stim	35		2	unambiguous_practice	left_practice	0.0	preferred_right	89.0	172.0		29.913504600001033	0.05008750001434237
0	25.44864910002798	stim	36		2	unambiguous_practice	left_practice	0.0	preferred_right	89.0	172.0		29.963592100015376	0.04967079998459667
0	25.498319900012575	stim	37		2	unambiguous_practice	left_practice	0.0	preferred_right	89.0	172.0		30.013262899999972	0.0496487999917008
0	25.547968700004276	stim	38		2	unambiguous_practice	left_practice	0.0	preferred_right	89.0	172.0		30.062911699991673	0.050721900013741106
0	25.598690600018017	stim	39		2	unambiguous_practice	left_practice	0.0	preferred_right	89.0	172.0		30.113633600005414	0.06638410000596195
0	25.66507470002398	stim	40		2	unambiguous_practice	left_practice	0.0	preferred_right	89.0	172.0		30.180017700011376	0.050164799962658435
0	25.715239499986637	stim	41		2	unambiguous_practice	left_practice	0.0	preferred_right	89.0	172.0		30.230182499974035	0.050102800014428794
0	25.765342300001066	stim	42		2	unambiguous_practice	left_practice	0.0	preferred_right	89.0	172.0		30.280285299988464	0.06573040003422648
0	25.831072700035293	stim	43		2	unambiguous_practice	left_practice	0.0	preferred_right	89.0	172.0		30.34601570002269	0.04986629995983094
0	25.880938999995124	stim	44		2	unambiguous_practice	left_practice	0.0	preferred_right	89.0	172.0		30.39588199998252	0.050554500019643456
0	25.931493500014767	stim	45		2	unambiguous_practice	left_practice	0.0	preferred_right	89.0	172.0		30.446436500002164	0.05013559997314587
0	25.981629099987913	stim	46		2	unambiguous_practice	left_practice	0.0	preferred_right	89.0	172.0		30.49657209997531	0.052329800033476204
0	26.03395890002139	stim	47		2	unambiguous_practice	left_practice	0.0	preferred_right	89.0	172.0		30.548901900008786	0.05043070000829175
0	26.08438960002968	stim	48		2	unambiguous_practice	left_practice	0.0	preferred_right	89.0	172.0		30.599332600017078	0.05005249998066574
0	26.134442100010347	stim	49		2	unambiguous_practice	left_practice	0.0	preferred_right	89.0	172.0		30.649385099997744	0.04953409999143332
0	26.18397620000178	stim	50		2	unambiguous_practice	left_practice	0.0	preferred_right	89.0	172.0		30.698919199989177	0.048065599985420704
0	26.2320417999872	stim	51		2	unambiguous_practice	left_practice	0.0	preferred_right	89.0	172.0		30.746984799974598	0.05150500003946945
0	26.28354680002667	stim	52		2	unambiguous_practice	left_practice	0.0	preferred_right	89.0	172.0		30.798489800014067	0.05080659996019676
0	26.334353399986867	stim	53		2	unambiguous_practice	left_practice	0.0	preferred_right	89.0	172.0		30.849296399974264	0.05054230004316196
0	26.38489570003003	stim	54		2	unambiguous_practice	left_practice	0.0	preferred_right	89.0	172.0		30.899838700017426	0.04990159999579191
0	26.43479730002582	stim	55		2	unambiguous_practice	left_practice	0.0	preferred_right	89.0	172.0		30.949740300013218	0.04952969995792955
0	26.48432699998375	stim	56		2	unambiguous_practice	left_practice	0.0	preferred_right	89.0	172.0		30.999269999971148	0.049681800010148436
0	26.5340087999939	stim	57		2	unambiguous_practice	left_practice	0.0	preferred_right	89.0	172.0		31.048951799981296	0.050259899988304824
0	26.584268699982204	stim	58		2	unambiguous_practice	left_practice	0.0	preferred_right	89.0	172.0		31.0992116999696	0.050376900006085634
0	26.63464559998829	stim	59		2	unambiguous_practice	left_practice	0.0	preferred_right	89.0	172.0		31.149588599975687	0.049778500047978014
0	26.684424100036267	stim	60		2	unambiguous_practice	left_practice	0.0	preferred_right	89.0	172.0		31.199367100023665	0.04987799999071285
0	26.73430210002698	stim	61		2	unambiguous_practice	left_practice	0.0	preferred_right	89.0	172.0		31.249245100014377	0.049564799992367625
0	26.783866900019348	stim	62		2	unambiguous_practice	left_practice	0.0	preferred_right	89.0	172.0		31.298809900006745	0.050410999974701554
0	26.83427789999405	stim	63		2	unambiguous_practice	left_practice	0.0	preferred_right	89.0	172.0		31.349220899981447	0.049945700040552765
0	26.884223600034602	stim	64		2	unambiguous_practice	left_practice	0.0	preferred_right	89.0	172.0		31.399166600022	0.05023419996723533
0	26.934457800001837	stim	65		2	unambiguous_practice	left_practice	0.0	preferred_right	89.0	172.0		31.449400799989235	0.05008580000139773
0	26.984543600003235	stim	66		2	unambiguous_practice	left_practice	0.0	preferred_right	89.0	172.0		31.499486599990632	0.05001499998616055
0	27.034558599989396	stim	67		2	unambiguous_practice	left_practice	0.0	preferred_right	89.0	172.0		31.549501599976793	0.049624300037976354
0	27.084182900027372	stim	68		2	unambiguous_practice	left_practice	0.0	preferred_right	89.0	172.0		31.59912590001477	0.049819799955002964
0	27.134002699982375	stim	69		2	unambiguous_practice	left_practice	0.0	preferred_right	89.0	172.0		31.648945699969772	0.0501893000327982
0	27.184192000015173	stim	70		2	unambiguous_practice	left_practice	0.0	preferred_right	89.0	172.0		31.69913500000257	0.05002139997668564
0	27.23421339999186	stim	71		2	unambiguous_practice	left_practice	0.0	preferred_right	89.0	172.0		31.749156399979256	0.049769200035370886
0	27.28398260002723	stim	72		2	unambiguous_practice	left_practice	0.0	preferred_right	89.0	172.0		31.798925600014627	0.050467299995943904
0	27.334449900023174	stim	73		2	unambiguous_practice	left_practice	0.0	preferred_right	89.0	172.0		31.84939290001057	0.05012839997652918
0	27.384578299999703	stim	74		2	unambiguous_practice	left_practice	0.0	preferred_right	89.0	172.0		31.8995212999871	0.05012299999361858
0	27.43470129999332	stim	75		2	unambiguous_practice	left_practice	0.0	preferred_right	89.0	172.0		31.94964429998072	0.04984150000382215
0	27.484542799997143	stim	76		2	unambiguous_practice	left_practice	0.0	preferred_right	89.0	172.0		31.99948579998454	0.05010970000876114
0	27.534652500005905	stim	77		2	unambiguous_practice	left_practice	0.0	preferred_right	89.0	172.0		32.0495954999933	0.05049029999645427
0	27.58514280000236	stim	78		2	unambiguous_practice	left_practice	0.0	preferred_right	89.0	172.0		32.100085799989756	0.05002159997820854
0	27.635164399980567	stim	79		2	unambiguous_practice	left_practice	0.0	preferred_right	89.0	172.0		32.150107399967965	0.05023360002087429
0	27.68539800000144	stim	80		2	unambiguous_practice	left_practice	0.0	preferred_right	89.0	172.0		32.20034099998884	0.04986379999900237
0	27.735261800000444	stim	81		2	unambiguous_practice	left_practice	0.0	preferred_right	89.0	172.0		32.25020479998784	0.050038999994285405
0	27.78530079999473	stim	82		2	unambiguous_practice	left_practice	0.0	preferred_right	89.0	172.0		32.30024379998213	0.05045720003545284
0	27.835758000030182	stim	83		2	unambiguous_practice	left_practice	0.0	preferred_right	89.0	172.0		32.35070100001758	0.04984669998520985
0	27.885604700015392	stim	84		2	unambiguous_practice	left_practice	0.0	preferred_right	89.0	172.0		32.40054770000279	0.050011000013910234
0	27.935615700029302	stim	85		2	unambiguous_practice	left_practice	0.0	preferred_right	89.0	172.0		32.4505587000167	0.05005469999741763
0	27.98567040002672	stim	86		2	unambiguous_practice	left_practice	0.0	preferred_right	89.0	172.0		32.50061340001412	0.050012399966362864
0	28.035682799993083	stim	87		2	unambiguous_practice	left_practice	0.0	preferred_right	89.0	172.0		32.55062579998048	0.050431400013621897
0	28.086114200006705	stim	88		2	unambiguous_practice	left_practice	0.0	preferred_right	89.0	172.0		32.6010571999941	2.5833358999807388
0	30.669450099987444	stim	0		0	break	break	0.0	preferred_right	1.0	0.0		35.18439309997484	-30.66989120002836
0	-0.00044110004091635346	break	0	space	83	break	break	0.0	preferred_right	1.0	0.0	0.1025006000418216	4.514501899946481	32.20742680004332
