trial_nr	onset	event_type	phase	response	nr_frames	block_type	trial_type	response_hand	phase_length	key_duration	onset_abs	duration
0	0.018814100068993866	stim	0		0	break	break	preferred	1.0		4.951008700067177	3.354628899949603
0	3.3734430000185966	break	0	space	0	break	break	preferred	1.0	0.07899169996380806	8.30563760001678	0.38556720002088696
0	3.7590102000394836	break	0	space	294	break	break	preferred	1.0	0.08619569998700172	8.691204800037667	1.2384929000400007
1	4.997503100079484	stim	0		2	ambiguous	ambiguous	preferred	600.0		9.929697700077668	0.03337499999906868
1	5.030878100078553	stim	1		2	ambiguous	ambiguous	preferred	600.0		9.963072700076737	0.03370479994919151
1	5.0645829000277445	stim	2		2	ambiguous	ambiguous	preferred	600.0		9.996777500025928	0.032753000035881996
1	5.0973359000636265	stim	3		2	ambiguous	ambiguous	preferred	600.0		10.02953050006181	0.033413899946026504
1	5.130749800009653	stim	4		2	ambiguous	ambiguous	preferred	600.0		10.062944400007837	0.033280299976468086
1	5.164030099986121	stim	5		2	ambiguous	ambiguous	preferred	600.0		10.096224699984305	0.033368100062943995
1	5.197398200049065	stim	6		2	ambiguous	ambiguous	preferred	600.0		10.129592800047249	0.03365510003641248
1	5.2310533000854775	stim	7		2	ambiguous	ambiguous	preferred	600.0		10.163247900083661	0.03299929993227124
1	5.264052600017749	stim	8		2	ambiguous	ambiguous	preferred	600.0		10.196247200015932	0.033361900015734136
1	5.297414500033483	stim	9		2	ambiguous	ambiguous	preferred	600.0		10.229609100031666	0.033277399954386055
1	5.330691899987869	stim	10		2	ambiguous	ambiguous	preferred	600.0		10.262886499986053	0.033377100015059114
1	5.364069000002928	stim	11		2	ambiguous	ambiguous	preferred	600.0		10.296263600001112	0.03332320007029921
1	5.397392200073227	stim	12		2	ambiguous	ambiguous	preferred	600.0		10.32958680007141	0.03347559995017946
1	5.430867800023407	stim	13		2	ambiguous	ambiguous	preferred	600.0		10.36306240002159	0.03355100005865097
1	5.464418800082058	stim	14		2	ambiguous	ambiguous	preferred	600.0		10.396613400080241	0.03320700000040233
1	5.49762580008246	stim	15		2	ambiguous	ambiguous	preferred	600.0		10.429820400080644	0.03347379993647337
1	5.531099600018933	stim	16		2	ambiguous	ambiguous	preferred	600.0		10.463294200017117	0.03377149999141693
1	5.56487110001035	stim	17		2	ambiguous	ambiguous	preferred	600.0		10.497065700008534	0.03376400005072355
1	5.598635100061074	stim	18		2	ambiguous	ambiguous	preferred	600.0		10.530829700059257	0.03336989996023476
1	5.632005000021309	stim	19		2	ambiguous	ambiguous	preferred	600.0		10.564199600019492	0.03346209996379912
1	5.665467099985108	stim	20		2	ambiguous	ambiguous	preferred	600.0		10.597661699983291	0.03301270003430545
1	5.698479800019413	stim	21		2	ambiguous	ambiguous	preferred	600.0		10.630674400017597	0.033412300050258636
1	5.731892100069672	stim	22		2	ambiguous	ambiguous	preferred	600.0		10.664086700067855	0.03337749990168959
1	5.7652695999713615	stim	23		2	ambiguous	ambiguous	preferred	600.0		10.697464199969545	0.033461400074884295
1	5.798731000046246	stim	24		2	ambiguous	ambiguous	preferred	600.0		10.73092560004443	0.0332036999752745
1	5.83193470002152	stim	25		2	ambiguous	ambiguous	preferred	600.0		10.764129300019704	0.03331490000709891
1	5.865249600028619	stim	26		2	ambiguous	ambiguous	preferred	600.0		10.797444200026803	0.03345470002386719
1	5.898704300052486	stim	27		2	ambiguous	ambiguous	preferred	600.0		10.83089890005067	0.03318359993863851
1	5.931887899991125	stim	28		2	ambiguous	ambiguous	preferred	600.0		10.864082499989308	0.03338060004170984
1	5.965268500032835	stim	29		2	ambiguous	ambiguous	preferred	600.0		10.897463100031018	0.033382499939762056
1	5.998650999972597	stim	30		2	ambiguous	ambiguous	preferred	600.0		10.93084559997078	0.03349860000889748
1	6.032149599981494	stim	31		2	ambiguous	ambiguous	preferred	600.0		10.964344199979678	0.033359199995175004
1	6.065508799976669	stim	32		2	ambiguous	ambiguous	preferred	600.0		10.997703399974853	0.033430500072427094
1	6.098939300049096	stim	33		2	ambiguous	ambiguous	preferred	600.0		11.03113390004728	0.033258199924603105
1	6.1321974999736995	stim	34		2	ambiguous	ambiguous	preferred	600.0		11.064392099971883	0.03359420003835112
1	6.165791700012051	stim	35		2	ambiguous	ambiguous	preferred	600.0		11.097986300010234	0.03330220002681017
1	6.199093900038861	stim	36		2	ambiguous	ambiguous	preferred	600.0		11.131288500037044	0.03368310001678765
1	6.232777000055648	stim	37		2	ambiguous	ambiguous	preferred	600.0		11.164971600053832	0.0332979999948293
1	6.266075000050478	stim	38		2	ambiguous	ambiguous	preferred	600.0		11.198269600048661	0.03342829993925989
1	6.299503299989738	stim	39		2	ambiguous	ambiguous	preferred	600.0		11.231697899987921	0.03335819998756051
1	6.332861499977298	stim	40		2	ambiguous	ambiguous	preferred	600.0		11.265056099975482	0.03331410000100732
1	6.366175599978305	stim	41		2	ambiguous	ambiguous	preferred	600.0		11.298370199976489	0.03336850006598979
1	6.399544100044295	stim	42		2	ambiguous	ambiguous	preferred	600.0		11.331738700042479	0.03332579997368157
1	6.432869900017977	stim	43		2	ambiguous	ambiguous	preferred	600.0		11.36506450001616	0.03380299999844283
1	6.46667290001642	stim	44		2	ambiguous	ambiguous	preferred	600.0		11.398867500014603	0.03330090001691133
1	6.499973800033331	stim	45		2	ambiguous	ambiguous	preferred	600.0		11.432168400031514	0.03356759995222092
1	6.533541399985552	stim	46		2	ambiguous	ambiguous	preferred	600.0		11.465735999983735	0.03339810005854815
1	6.5669395000441	stim	47		2	ambiguous	ambiguous	preferred	600.0		11.499134100042284	0.033759100013412535
1	6.6006986000575125	stim	48		2	ambiguous	ambiguous	preferred	600.0		11.532893200055696	0.033306999946944416
1	6.634005600004457	stim	49		2	ambiguous	ambiguous	preferred	600.0		11.56620020000264	0.033480399986729026
1	6.667485999991186	stim	50		2	ambiguous	ambiguous	preferred	600.0		11.59968059998937	0.033274600049480796
1	6.700760600040667	stim	51		2	ambiguous	ambiguous	preferred	600.0		11.63295520003885	0.03337790002115071
1	6.7341385000618175	stim	52		2	ambiguous	ambiguous	preferred	600.0		11.666333100060001	0.033775500021874905
1	6.767914000083692	stim	53		2	ambiguous	ambiguous	preferred	600.0		11.700108600081876	0.03301899996586144
1	6.800933000049554	stim	54		2	ambiguous	ambiguous	preferred	600.0		11.733127600047737	0.033321999944746494
1	6.8342549999943	stim	55		2	ambiguous	ambiguous	preferred	600.0		11.766449599992484	0.03334610001184046
1	6.867601100006141	stim	56		2	ambiguous	ambiguous	preferred	600.0		11.799795700004324	0.03328750003129244
1	6.900888600037433	stim	57		2	ambiguous	ambiguous	preferred	600.0		11.833083200035617	0.0333833999466151
1	6.934271999984048	stim	58		2	ambiguous	ambiguous	preferred	600.0		11.866466599982232	0.0333478000247851
1	6.967619800008833	stim	59		2	ambiguous	ambiguous	preferred	600.0		11.899814400007017	0.033499900018796325
1	7.00111970002763	stim	60		2	ambiguous	ambiguous	preferred	600.0		11.933314300025813	0.033412700053304434
1	7.034532400080934	stim	61		2	ambiguous	ambiguous	preferred	600.0		11.966727000079118	0.033415199955925345
1	7.0679476000368595	stim	62		2	ambiguous	ambiguous	preferred	600.0		12.000142200035043	0.03354960004799068
1	7.10149720008485	stim	63		2	ambiguous	ambiguous	preferred	600.0		12.033691800083034	0.03327389992773533
1	7.1347711000125855	stim	64		2	ambiguous	ambiguous	preferred	600.0		12.066965700010769	0.033295099972747266
1	7.168066199985333	stim	65		2	ambiguous	ambiguous	preferred	600.0		12.100260799983516	0.03332410007715225
1	7.201390300062485	stim	66		2	ambiguous	ambiguous	preferred	600.0		12.133584900060669	0.03335479996167123
1	7.234745100024156	stim	67		2	ambiguous	ambiguous	preferred	600.0		12.16693970002234	0.03331199998501688
1	7.268057100009173	stim	68		2	ambiguous	ambiguous	preferred	600.0		12.200251700007357	0.03354069998022169
1	7.301597799989395	stim	69		2	ambiguous	ambiguous	preferred	600.0		12.233792399987578	0.033470400026999414
1	7.335068200016394	stim	70		2	ambiguous	ambiguous	preferred	600.0		12.267262800014578	0.03327110002283007
1	7.368339300039224	stim	71		2	ambiguous	ambiguous	preferred	600.0		12.300533900037408	0.03338149993214756
1	7.401720799971372	stim	72		2	ambiguous	ambiguous	preferred	600.0		12.333915399969555	0.033266100101172924
1	7.434986900072545	stim	73		2	ambiguous	ambiguous	preferred	600.0		12.367181500070728	0.03356759995222092
1	7.468554500024766	stim	74		2	ambiguous	ambiguous	preferred	600.0		12.40074910002295	0.03364979999605566
1	7.502204300020821	stim	75		2	ambiguous	ambiguous	preferred	600.0		12.434398900019005	0.03308249998372048
1	7.535286800004542	stim	76		2	ambiguous	ambiguous	preferred	600.0		12.467481400002725	0.033262800076045096
1	7.568549600080587	stim	77		2	ambiguous	ambiguous	preferred	600.0		12.50074420007877	0.03381029993761331
1	7.6023599000182	stim	78		2	ambiguous	ambiguous	preferred	600.0		12.534554500016384	0.03353899996727705
1	7.635898899985477	stim	79		2	ambiguous	ambiguous	preferred	600.0		12.56809349998366	0.032970100059174
1	7.668869000044651	stim	80		2	ambiguous	ambiguous	preferred	600.0		12.601063600042835	0.033394700032658875
1	7.70226370007731	stim	81		2	ambiguous	ambiguous	preferred	600.0		12.634458300075494	0.03339859994594008
1	7.73566230002325	stim	82		2	ambiguous	ambiguous	preferred	600.0		12.667856900021434	0.03322550002485514
1	7.768887800048105	stim	83		2	ambiguous	ambiguous	preferred	600.0		12.701082400046289	0.03333479992579669
1	7.802222599973902	stim	84		2	ambiguous	ambiguous	preferred	600.0		12.734417199972086	0.03341520007234067
1	7.835637800046243	stim	85		2	ambiguous	ambiguous	preferred	600.0		12.767832400044426	0.033708899980410933
1	7.869346700026654	stim	86		2	ambiguous	ambiguous	preferred	600.0		12.801541300024837	0.03401109995320439
1	7.903357799979858	stim	87		2	ambiguous	ambiguous	preferred	600.0		12.835552399978042	0.0340060000307858
1	7.937363800010644	stim	88		2	ambiguous	ambiguous	preferred	600.0		12.869558400008827	0.03379789995960891
1	7.971161699970253	stim	89		2	ambiguous	ambiguous	preferred	600.0		12.903356299968436	0.03328710002824664
1	8.0044487999985	stim	90		2	ambiguous	ambiguous	preferred	600.0		12.936643399996683	0.033360700006596744
1	8.037809500005096	stim	91		2	ambiguous	ambiguous	preferred	600.0		12.97000410000328	0.03362170001491904
1	8.071431200020015	stim	92		2	ambiguous	ambiguous	preferred	600.0		13.003625800018199	0.03357009997125715
1	8.105001299991272	stim	93		2	ambiguous	ambiguous	preferred	600.0		13.037195899989456	0.03321760008111596
1	8.138218900072388	stim	94		2	ambiguous	ambiguous	preferred	600.0		13.070413500070572	0.033533899928443134
1	8.171752800000831	stim	95		2	ambiguous	ambiguous	preferred	600.0		13.103947399999015	0.03338020003866404
1	8.205133000039496	stim	96		2	ambiguous	ambiguous	preferred	600.0		13.137327600037679	0.03349109995178878
1	8.238624099991284	stim	97		2	ambiguous	ambiguous	preferred	600.0		13.170818699989468	0.03394810005556792
1	8.272572200046852	stim	98		2	ambiguous	ambiguous	preferred	600.0		13.204766800045036	0.033760700025595725
1	8.306332900072448	stim	99		2	ambiguous	ambiguous	preferred	600.0		13.238527500070632	0.03361169993877411
1	8.339944600011222	stim	100		2	ambiguous	ambiguous	preferred	600.0		13.272139200009406	0.03335499996319413
1	8.373299599974416	stim	101		2	ambiguous	ambiguous	preferred	600.0		13.3054941999726	0.03348010010086
1	8.406779700075276	stim	102		2	ambiguous	ambiguous	preferred	600.0		13.33897430007346	0.03334149997681379
1	8.44012120005209	stim	103		2	ambiguous	ambiguous	preferred	600.0		13.372315800050274	0.0337260999949649
1	8.473847300047055	stim	104		2	ambiguous	ambiguous	preferred	600.0		13.406041900045238	0.03346649999730289
1	8.507313800044358	stim	105		2	ambiguous	ambiguous	preferred	600.0		13.439508400042541	0.03343099995981902
1	8.540744800004177	stim	106		2	ambiguous	ambiguous	preferred	600.0		13.47293940000236	0.033731000032275915
1	8.574475800036453	stim	107		2	ambiguous	ambiguous	preferred	600.0		13.506670400034636	0.03336689993739128
1	8.607842699973844	stim	108		2	ambiguous	ambiguous	preferred	600.0		13.540037299972028	0.03326530009508133
1	8.641108000068925	stim	109		2	ambiguous	ambiguous	preferred	600.0		13.573302600067109	0.03336080000735819
1	8.674468800076284	stim	110		2	ambiguous	ambiguous	preferred	600.0		13.606663400074467	0.03356569993775338
1	8.708034500014037	stim	111		2	ambiguous	ambiguous	preferred	600.0		13.64022910001222	0.033293699962086976
1	8.741328199976124	stim	112		2	ambiguous	ambiguous	preferred	600.0		13.673522799974307	0.03334100008942187
1	8.774669200065546	stim	113		2	ambiguous	ambiguous	preferred	600.0		13.70686380006373	0.0333638999145478
1	8.808033099980094	stim	114		2	ambiguous	ambiguous	preferred	600.0		13.740227699978277	0.03331279999110848
1	8.841345899971202	stim	115		2	ambiguous	ambiguous	preferred	600.0		13.773540499969386	0.033288200036622584
1	8.874634100007825	stim	116		2	ambiguous	ambiguous	preferred	600.0		13.806828700006008	0.03335729998070747
1	8.907991399988532	stim	117		2	ambiguous	ambiguous	preferred	600.0		13.840185999986716	0.03351079998537898
1	8.941502199973911	stim	118		2	ambiguous	ambiguous	preferred	600.0		13.873696799972095	0.033261200063861907
1	8.974763400037773	stim	119		2	ambiguous	ambiguous	preferred	600.0		13.906958000035957	0.033341399976052344
1	9.008104800013825	stim	120		2	ambiguous	ambiguous	preferred	600.0		13.940299400012009	0.03339830006007105
1	9.041503100073896	stim	121		2	ambiguous	ambiguous	preferred	600.0		13.97369770007208	0.033286299905739725
1	9.074789399979636	stim	122		2	ambiguous	ambiguous	preferred	600.0		14.00698399997782	0.03331580001395196
1	9.108105199993588	stim	123		2	ambiguous	ambiguous	preferred	600.0		14.040299799991772	0.033707300084643066
1	9.141812500078231	stim	124		2	ambiguous	ambiguous	preferred	600.0		14.074007100076415	0.03332980000413954
1	9.17514230008237	stim	125		2	ambiguous	ambiguous	preferred	600.0		14.107336900080554	0.033886299934238195
1	9.209028600016609	stim	126		2	ambiguous	ambiguous	preferred	600.0		14.141223200014792	0.03347150003537536
1	9.242500100051984	stim	127		2	ambiguous	ambiguous	preferred	600.0		14.174694700050168	0.03343429998494685
1	9.275934400036931	stim	128		2	ambiguous	ambiguous	preferred	600.0		14.208129000035115	0.0334220000077039
1	9.309356400044635	stim	129		2	ambiguous	ambiguous	preferred	600.0		14.241551000042818	0.033517900039441884
1	9.342874300084077	stim	130		2	ambiguous	ambiguous	preferred	600.0		14.27506890008226	0.03341009991709143
1	9.376284400001168	stim	131		2	ambiguous	ambiguous	preferred	600.0		14.308478999999352	0.03330230002757162
1	9.40958670002874	stim	132		2	ambiguous	ambiguous	preferred	600.0		14.341781300026923	0.033262599958106875
1	9.442849299986847	stim	133		2	ambiguous	ambiguous	preferred	600.0		14.37504389998503	0.033376900013536215
1	9.476226200000383	stim	134		2	ambiguous	ambiguous	preferred	600.0		14.408420799998567	0.03331500000786036
1	9.509541200008243	stim	135		2	ambiguous	ambiguous	preferred	600.0		14.441735800006427	0.03336620004847646
1	9.54290740005672	stim	136		2	ambiguous	ambiguous	preferred	600.0		14.475102000054903	0.0333717999747023
1	9.576279200031422	stim	137		2	ambiguous	ambiguous	preferred	600.0		14.508473800029606	0.03347290004603565
1	9.609752100077458	stim	138		2	ambiguous	ambiguous	preferred	600.0		14.541946700075641	0.03348079998977482
1	9.643232900067233	stim	139		2	ambiguous	ambiguous	preferred	600.0		14.575427500065416	0.033354299957863986
1	9.676587200025097	stim	140		2	ambiguous	ambiguous	preferred	600.0		14.60878180002328	0.03347210003994405
1	9.71005930006504	stim	141		2	ambiguous	ambiguous	preferred	600.0		14.642253900063224	0.03341729997191578
1	9.743476600036956	stim	142		2	ambiguous	ambiguous	preferred	600.0		14.67567120003514	0.03370919998269528
1	9.777185800019652	stim	143		2	ambiguous	ambiguous	preferred	600.0		14.709380400017835	0.03324689995497465
1	9.810432699974626	stim	144		2	ambiguous	ambiguous	preferred	600.0		14.74262729997281	0.03344410005956888
1	9.843876800034195	stim	145		2	ambiguous	ambiguous	preferred	600.0		14.776071400032379	0.033431699965149164
1	9.877308499999344	stim	146		2	ambiguous	ambiguous	preferred	600.0		14.809503099997528	0.03348850004840642
1	9.91079700004775	stim	147		2	ambiguous	ambiguous	preferred	600.0		14.842991600045934	0.03348300000652671
1	9.944280000054277	stim	148		2	ambiguous	ambiguous	preferred	600.0		14.876474600052461	0.03342729993164539
1	9.977707299985923	stim	149		2	ambiguous	ambiguous	preferred	600.0		14.909901899984106	0.03322510002180934
1	10.010932400007732	stim	150		2	ambiguous	ambiguous	preferred	600.0		14.943127000005916	0.03367789997719228
1	10.044610299984924	stim	151		2	ambiguous	ambiguous	preferred	600.0		14.976804899983108	0.03337730001658201
1	10.077987600001507	stim	152		2	ambiguous	ambiguous	preferred	600.0		15.01018219999969	0.03331960004288703
1	10.111307200044394	stim	153		2	ambiguous	ambiguous	preferred	600.0		15.043501800042577	0.033335399930365384
1	10.144642599974759	stim	154		2	ambiguous	ambiguous	preferred	600.0		15.076837199972942	0.033355000079609454
1	10.177997600054368	stim	155		2	ambiguous	ambiguous	preferred	600.0		15.110192200052552	0.03374179999809712
1	10.211739400052465	stim	156		2	ambiguous	ambiguous	preferred	600.0		15.143934000050649	0.033035799977369606
1	10.244775200029835	stim	157		2	ambiguous	ambiguous	preferred	600.0		15.176969800028019	0.03337760001886636
1	10.278152800048701	stim	158		2	ambiguous	ambiguous	preferred	600.0		15.210347400046885	0.03393049992155284
1	10.312083299970254	stim	159		2	ambiguous	ambiguous	preferred	600.0		15.244277899968438	0.03342630004044622
1	10.3455096000107	stim	160		2	ambiguous	ambiguous	preferred	600.0		15.277704200008884	0.03337279998231679
1	10.378882399993017	stim	161		2	ambiguous	ambiguous	preferred	600.0		15.3110769999912	0.033376700012013316
1	10.41225910000503	stim	162		2	ambiguous	ambiguous	preferred	600.0		15.344453700003214	0.03546549996826798
1	10.447724599973299	stim	163		2	ambiguous	ambiguous	preferred	600.0		15.379919199971482	0.033523500082083046
1	10.481248100055382	stim	164		2	ambiguous	ambiguous	preferred	600.0		15.413442700053565	0.03337880002800375
1	10.514626900083385	stim	165		2	ambiguous	ambiguous	preferred	600.0		15.446821500081569	0.03355559997726232
1	10.548182500060648	stim	166		2	ambiguous	ambiguous	preferred	600.0		15.480377100058831	0.0332357999868691
1	10.581418300047517	stim	167		2	ambiguous	ambiguous	preferred	600.0		15.5136129000457	0.03338829998392612
1	10.614806600031443	stim	168		2	ambiguous	ambiguous	preferred	600.0		15.547001200029626	0.033747500041499734
1	10.648554100072943	stim	169		2	ambiguous	ambiguous	preferred	600.0		15.580748700071126	0.0327806998975575
1	10.6813347999705	stim	170		2	ambiguous	ambiguous	preferred	600.0		15.613529399968684	0.03325630002655089
1	10.714591099997051	stim	171		2	ambiguous	ambiguous	preferred	600.0		15.646785699995235	0.050354700069874525
1	10.764945800066926	stim	172		2	ambiguous	ambiguous	preferred	600.0		15.69714040006511	0.033782799961045384
1	10.798728600027971	stim	173		2	ambiguous	ambiguous	preferred	600.0		15.730923200026155	0.033238900010474026
1	10.831967500038445	stim	174		2	ambiguous	ambiguous	preferred	600.0		15.764162100036629	0.033158899983391166
1	10.865126400021836	stim	175		2	ambiguous	ambiguous	preferred	600.0		15.79732100002002	0.03307060000952333
1	10.89819700003136	stim	176		2	ambiguous	ambiguous	preferred	600.0		15.830391600029543	0.03357480000704527
1	10.931771800038405	stim	177		2	ambiguous	ambiguous	preferred	600.0		15.863966400036588	0.032935600029304624
1	10.96470740006771	stim	178		2	ambiguous	ambiguous	preferred	600.0		15.896902000065893	0.0334648999851197
1	10.998172300052829	stim	179		2	ambiguous	ambiguous	preferred	600.0		15.930366900051013	0.033886199933476746
1	11.032058499986306	stim	180		2	ambiguous	ambiguous	preferred	600.0		15.96425309998449	0.03306700009852648
1	11.065125500084832	stim	181		2	ambiguous	ambiguous	preferred	600.0		15.997320100083016	0.03306329995393753
1	11.09818880003877	stim	182		2	ambiguous	ambiguous	preferred	600.0		16.030383400036953	0.033141299965791404
1	11.131330100004561	stim	183		2	ambiguous	ambiguous	preferred	600.0		16.063524700002745	0.034520799992606044
1	11.165850899997167	stim	184		2	ambiguous	ambiguous	preferred	600.0		16.09804549999535	0.03255650005303323
1	11.1984074000502	stim	185		2	ambiguous	ambiguous	preferred	600.0		16.130602000048384	0.03329259995371103
1	11.231700000003912	stim	186		2	ambiguous	ambiguous	preferred	600.0		16.163894600002095	0.033353300066664815
1	11.265053300070576	stim	187		2	ambiguous	ambiguous	preferred	600.0		16.19724790006876	0.033087499905377626
1	11.298140799975954	stim	188		2	ambiguous	ambiguous	preferred	600.0		16.230335399974138	0.03334830002859235
1	11.331489100004546	stim	189		2	ambiguous	ambiguous	preferred	600.0		16.26368370000273	0.03345129999797791
1	11.364940400002524	stim	190		2	ambiguous	ambiguous	preferred	600.0		16.297135000000708	0.03358519996982068
1	11.398525599972345	stim	191		2	ambiguous	ambiguous	preferred	600.0		16.33072019997053	0.03341070003807545
1	11.43193630001042	stim	192		2	ambiguous	ambiguous	preferred	600.0		16.364130900008604	0.033427100046537817
1	11.465363400056958	stim	193		2	ambiguous	ambiguous	preferred	600.0		16.39755800005514	0.033348000026308
1	11.498711400083266	stim	194		2	ambiguous	ambiguous	preferred	600.0		16.43090600008145	0.03355199994985014
1	11.532263400033116	stim	195		2	ambiguous	ambiguous	preferred	600.0		16.4644580000313	0.03336889995262027
1	11.565632299985737	stim	196		2	ambiguous	ambiguous	preferred	600.0		16.49782689998392	0.03359360003378242
1	11.599225900019519	stim	197		2	ambiguous	ambiguous	preferred	600.0		16.531420500017703	0.03314049995969981
1	11.632366399979219	stim	198		2	ambiguous	ambiguous	preferred	600.0		16.564560999977402	0.03363580000586808
1	11.666002199985087	stim	199		2	ambiguous	ambiguous	preferred	600.0		16.59819679998327	0.033206499996595085
1	11.699208699981682	stim	200		2	ambiguous	ambiguous	preferred	600.0		16.631403299979866	0.033453700016252697
1	11.732662399997935	stim	201		2	ambiguous	ambiguous	preferred	600.0		16.66485699999612	0.03330250002909452
1	11.76596490002703	stim	202		2	ambiguous	ambiguous	preferred	600.0		16.698159500025213	0.03331680002156645
1	11.799281700048596	stim	203		2	ambiguous	ambiguous	preferred	600.0		16.73147630004678	0.03342380002140999
1	11.832705500070006	stim	204		2	ambiguous	ambiguous	preferred	600.0		16.76490010006819	0.033403299981728196
1	11.866108800051734	stim	205		2	ambiguous	ambiguous	preferred	600.0		16.798303400049917	0.033625599928200245
1	11.899734399979934	stim	206		2	ambiguous	ambiguous	preferred	600.0		16.831928999978118	0.03336920007131994
1	11.933103600051254	stim	207		2	ambiguous	ambiguous	preferred	600.0		16.865298200049438	0.04985760001000017
1	11.982961200061254	stim	208		2	ambiguous	ambiguous	preferred	600.0		16.915155800059438	0.033335199928842485
1	12.016296399990097	stim	209		2	ambiguous	ambiguous	preferred	600.0		16.94849099998828	0.0336084000300616
1	12.049904800020158	stim	210		2	ambiguous	ambiguous	preferred	600.0		16.982099400018342	0.04981890006456524
1	12.099723700084724	stim	211		2	ambiguous	ambiguous	preferred	600.0		17.031918300082907	0.03335569996852428
1	12.133079400053248	stim	212		2	ambiguous	ambiguous	preferred	600.0		17.06527400005143	0.033446199959143996
1	12.166525600012392	stim	213		2	ambiguous	ambiguous	preferred	600.0		17.098720200010575	0.03332609997596592
1	12.199851699988358	stim	214		2	ambiguous	ambiguous	preferred	600.0		17.13204629998654	0.033391500008292496
1	12.23324319999665	stim	215		2	ambiguous	ambiguous	preferred	600.0		17.165437799994834	0.03350380004849285
1	12.266747000045143	stim	216		2	ambiguous	ambiguous	preferred	600.0		17.198941600043327	0.03344999998807907
1	12.300197000033222	stim	217		2	ambiguous	ambiguous	preferred	600.0		17.232391600031406	0.03301869996357709
1	12.3332156999968	stim	218		2	ambiguous	ambiguous	preferred	600.0		17.265410299994983	0.03335230005905032
1	12.36656800005585	stim	219		2	ambiguous	ambiguous	preferred	600.0		17.298762600054033	0.03349439997691661
1	12.400062400032766	stim	220		2	ambiguous	ambiguous	preferred	600.0		17.33225700003095	0.03336080000735819
1	12.433423200040124	stim	221		2	ambiguous	ambiguous	preferred	600.0		17.365617800038308	0.03363429999444634
1	12.46705750003457	stim	222		2	ambiguous	ambiguous	preferred	600.0		17.399252100032754	0.03339200001209974
1	12.50044950004667	stim	223		2	ambiguous	ambiguous	preferred	600.0		17.432644100044854	0.03341919998638332
1	12.533868700033054	stim	224		2	ambiguous	ambiguous	preferred	600.0		17.466063300031237	0.03336889995262027
1	12.567237599985674	stim	225		2	ambiguous	ambiguous	preferred	600.0		17.499432199983858	0.033581500058062375
1	12.600819100043736	stim	226		2	ambiguous	ambiguous	preferred	600.0		17.53301370004192	0.033257100032642484
1	12.634076200076379	stim	227		2	ambiguous	ambiguous	preferred	600.0		17.566270800074562	0.03346669999882579
1	12.667542900075205	stim	228		2	ambiguous	ambiguous	preferred	600.0		17.599737500073388	0.03376739996019751
1	12.701310300035402	stim	229		2	ambiguous	ambiguous	preferred	600.0		17.633504900033586	0.033181300037540495
1	12.734491600072943	stim	230		2	ambiguous	ambiguous	preferred	600.0		17.666686200071126	0.03334480000194162
1	12.767836400074884	stim	231		2	ambiguous	ambiguous	preferred	600.0		17.700031000073068	0.03356299991719425
1	12.801399399992079	stim	232		2	ambiguous	ambiguous	preferred	600.0		17.733593999990262	0.0332860000198707
1	12.83468540001195	stim	233		2	ambiguous	ambiguous	preferred	600.0		17.766880000010133	0.03327210003044456
1	12.867957500042394	stim	234		2	ambiguous	ambiguous	preferred	600.0		17.800152100040577	0.033393300021998584
1	12.901350800064392	stim	235		2	ambiguous	ambiguous	preferred	600.0		17.833545400062576	0.033503999933600426
1	12.934854799997993	stim	236		2	ambiguous	ambiguous	preferred	600.0		17.867049399996176	0.033347100019454956
1	12.968201900017448	stim	237		2	ambiguous	ambiguous	preferred	600.0		17.90039650001563	0.03354990005027503
1	13.001751800067723	stim	238		2	ambiguous	ambiguous	preferred	600.0		17.933946400065906	0.033330800011754036
1	13.035082600079477	stim	239		2	ambiguous	ambiguous	preferred	600.0		17.96727720007766	0.033317299908958375
1	13.068399899988435	stim	240		2	ambiguous	ambiguous	preferred	600.0		18.00059449998662	0.03343850001692772
1	13.101838400005363	stim	241		2	ambiguous	ambiguous	preferred	600.0		18.034033000003546	0.033483400009572506
1	13.135321800014935	stim	242		2	ambiguous	ambiguous	preferred	600.0		18.06751640001312	0.03327819996047765
1	13.168599999975413	stim	243		2	ambiguous	ambiguous	preferred	600.0		18.100794599973597	0.03333930007647723
1	13.20193930005189	stim	244		2	ambiguous	ambiguous	preferred	600.0		18.134133900050074	0.033538099960424006
1	13.235477400012314	stim	245		2	ambiguous	ambiguous	preferred	600.0		18.167672000010498	0.03334610001184046
1	13.268823500024155	stim	246		2	ambiguous	ambiguous	preferred	600.0		18.20101810002234	0.03326209995429963
1	13.302085599978454	stim	247		2	ambiguous	ambiguous	preferred	600.0		18.234280199976638	0.033538400079123676
1	13.335624000057578	stim	248		2	ambiguous	ambiguous	preferred	600.0		18.26781860005576	0.033182499930262566
1	13.36880649998784	stim	249		2	ambiguous	ambiguous	preferred	600.0		18.301001099986024	0.03345740004442632
1	13.402263900032267	stim	250		2	ambiguous	ambiguous	preferred	600.0		18.33445850003045	0.03324260003864765
1	13.435506500070915	stim	251		2	ambiguous	ambiguous	preferred	600.0		18.367701100069098	0.033395799924619496
1	13.468902299995534	stim	252		2	ambiguous	ambiguous	preferred	600.0		18.401096899993718	0.03323290008120239
1	13.502135200076737	stim	253		2	ambiguous	ambiguous	preferred	600.0		18.43432980007492	0.03359929996076971
1	13.535734500037506	stim	254		2	ambiguous	ambiguous	preferred	600.0		18.46792910003569	0.033321799943223596
1	13.56905629998073	stim	255		2	ambiguous	ambiguous	preferred	600.0		18.501250899978913	0.03314760001376271
1	13.602203899994493	stim	256		2	ambiguous	ambiguous	preferred	600.0		18.534398499992676	0.033338600071147084
1	13.63554250006564	stim	257		2	ambiguous	ambiguous	preferred	600.0		18.567737100063823	0.033323199953883886
1	13.668865700019524	stim	258		2	ambiguous	ambiguous	preferred	600.0		18.601060300017707	0.033326599979773164
1	13.702192299999297	stim	259		2	ambiguous	ambiguous	preferred	600.0		18.63438689999748	0.03336480003781617
1	13.735557100037113	stim	260		2	ambiguous	ambiguous	preferred	600.0		18.667751700035296	0.033446199959143996
1	13.769003299996257	stim	261		2	ambiguous	ambiguous	preferred	600.0		18.70119789999444	0.033199300058186054
1	13.802202600054443	stim	262		2	ambiguous	ambiguous	preferred	600.0		18.734397200052626	0.03334919991903007
1	13.835551799973473	stim	263		2	ambiguous	ambiguous	preferred	600.0		18.767746399971657	0.033282400108873844
1	13.868834200082347	stim	264		2	ambiguous	ambiguous	preferred	600.0		18.80102880008053	0.033353099948726594
1	13.902187300031073	stim	265		2	ambiguous	ambiguous	preferred	600.0		18.834381900029257	0.03338020003866404
1	13.935567500069737	stim	266		2	ambiguous	ambiguous	preferred	600.0		18.86776210006792	0.03350019990466535
1	13.969067699974403	stim	267		2	ambiguous	ambiguous	preferred	600.0		18.901262299972586	0.033240500022657216
1	14.00230819999706	stim	268		2	ambiguous	ambiguous	preferred	600.0		18.934502799995244	0.03359980008099228
1	14.035908000078052	stim	269		2	ambiguous	ambiguous	preferred	600.0		18.968102600076236	0.0329626000020653
1	14.068870600080118	stim	270		2	ambiguous	ambiguous	preferred	600.0		19.0010652000783	0.0333282999927178
1	14.102198900072835	stim	271		2	ambiguous	ambiguous	preferred	600.0		19.03439350007102	0.03328079998027533
1	14.13547970005311	stim	272		2	ambiguous	ambiguous	preferred	600.0		19.067674300051294	0.03347379993647337
1	14.168953499989584	stim	273		2	ambiguous	ambiguous	preferred	600.0		19.101148099987768	0.03331800003070384
1	14.202271500020288	stim	274		2	ambiguous	ambiguous	preferred	600.0		19.13446610001847	0.033285200013779104
1	14.235556700034067	stim	275		2	ambiguous	ambiguous	preferred	600.0		19.16775130003225	0.03331940004136413
1	14.268876100075431	stim	276		2	ambiguous	ambiguous	preferred	600.0		19.201070700073615	0.03342100000008941
1	14.30229710007552	stim	277		2	ambiguous	ambiguous	preferred	600.0		19.234491700073704	0.03338899998925626
1	14.335686100064777	stim	278		2	ambiguous	ambiguous	preferred	600.0		19.26788070006296	0.033488699933514
1	14.36917479999829	stim	279		2	ambiguous	ambiguous	preferred	600.0		19.301369399996474	0.03339810005854815
1	14.402572900056839	stim	280		2	ambiguous	ambiguous	preferred	600.0		19.334767500055023	0.03344669996295124
1	14.43601960001979	stim	281		2	ambiguous	ambiguous	preferred	600.0		19.368214200017974	0.03331980004440993
1	14.4693394000642	stim	282		2	ambiguous	ambiguous	preferred	600.0		19.401534000062384	0.03369720000773668
1	14.503036600071937	stim	283		2	ambiguous	ambiguous	preferred	600.0		19.43523120007012	0.03330059989821166
1	14.536337199970149	stim	284		2	ambiguous	ambiguous	preferred	600.0		19.468531799968332	0.033422800013795495
1	14.569759999983944	stim	285		2	ambiguous	ambiguous	preferred	600.0		19.501954599982128	0.033646900090388954
1	14.603406900074333	stim	286		2	ambiguous	ambiguous	preferred	600.0		19.535601500072517	0.03314059996046126
1	14.636547500034794	stim	287		2	ambiguous	ambiguous	preferred	600.0		19.568742100032978	0.03328450000844896
1	14.669832000043243	stim	288		2	ambiguous	ambiguous	preferred	600.0		19.602026600041427	0.033278499962762
1	14.703110500006005	stim	289		2	ambiguous	ambiguous	preferred	600.0		19.63530510000419	0.033345600008033216
1	14.736456100014038	stim	290		2	ambiguous	ambiguous	preferred	600.0		19.668650700012222	0.033391600009053946
1	14.769847700023092	stim	291		2	ambiguous	ambiguous	preferred	600.0		19.702042300021276	0.0333282999927178
1	14.80317600001581	stim	292		2	ambiguous	ambiguous	preferred	600.0		19.735370600013994	0.033455500029958785
1	14.836631500045769	stim	293		2	ambiguous	ambiguous	preferred	600.0		19.768826100043952	0.03315999999176711
1	14.869791500037536	stim	294		2	ambiguous	ambiguous	preferred	600.0		19.80198610003572	0.033321999944746494
1	14.903113499982283	stim	295		2	ambiguous	ambiguous	preferred	600.0		19.835308099980466	0.03338770009577274
1	14.936501200078055	stim	296		2	ambiguous	ambiguous	preferred	600.0		19.86869580007624	0.033320499933324754
1	14.96982170001138	stim	297		2	ambiguous	ambiguous	preferred	600.0		19.902016300009564	0.033305500051938
1	15.003127200063318	stim	298		2	ambiguous	ambiguous	preferred	600.0		19.9353218000615	0.03349709999747574
1	15.036624300060794	stim	299		2	ambiguous	ambiguous	preferred	600.0		19.968818900058977	0.03330659994389862
1	15.069930900004692	stim	300		2	ambiguous	ambiguous	preferred	600.0		20.002125500002876	0.03336540004238486
1	15.103296300047077	stim	301		2	ambiguous	ambiguous	preferred	600.0		20.03549090004526	0.03338449995499104
1	15.136680800002068	stim	302		2	ambiguous	ambiguous	preferred	600.0		20.068875400000252	0.03326599998399615
1	15.169946799986064	stim	303		2	ambiguous	ambiguous	preferred	600.0		20.102141399984248	0.03333150001708418
1	15.203278300003149	stim	304		2	ambiguous	ambiguous	preferred	600.0		20.135472900001332	0.033451099996455014
1	15.236729399999604	stim	305		2	ambiguous	ambiguous	preferred	600.0		20.168923999997787	0.03342630004044622
1	15.27015570004005	stim	306		2	ambiguous	ambiguous	preferred	600.0		20.202350300038233	0.03343559999484569
1	15.303591300034896	stim	307		2	ambiguous	ambiguous	preferred	600.0		20.23578590003308	0.03336150001268834
1	15.336952800047584	stim	308		2	ambiguous	ambiguous	preferred	600.0		20.269147400045767	0.0332156999502331
1	15.370168499997817	stim	309		2	ambiguous	ambiguous	preferred	600.0		20.302363099996	0.0333362000528723
1	15.40350470005069	stim	310		2	ambiguous	ambiguous	preferred	600.0		20.335699300048873	0.033448099973611534
1	15.4369528000243	stim	311		2	ambiguous	ambiguous	preferred	600.0		20.369147400022484	0.03358309995383024
1	15.470535899978131	stim	312		2	ambiguous	ambiguous	preferred	600.0		20.402730499976315	0.03298070002347231
1	15.503516600001603	stim	313		2	ambiguous	ambiguous	preferred	600.0		20.435711199999787	0.033505900064483285
1	15.537022500066087	stim	314		2	ambiguous	ambiguous	preferred	600.0		20.46921710006427	0.03344379994086921
1	15.570466300006956	stim	315		2	ambiguous	ambiguous	preferred	600.0		20.50266090000514	0.03335879999212921
1	15.603825099999085	stim	316		2	ambiguous	ambiguous	preferred	600.0		20.53601969999727	0.033327799988910556
1	15.637152899987996	stim	317		2	ambiguous	ambiguous	preferred	600.0		20.56934749998618	0.03346950002014637
1	15.670622400008142	stim	318		2	ambiguous	ambiguous	preferred	600.0		20.602817000006326	0.033285000012256205
1	15.703907400020398	stim	319		2	ambiguous	ambiguous	preferred	600.0		20.63610200001858	0.033265899983234704
1	15.737173300003633	stim	320		2	ambiguous	ambiguous	preferred	600.0		20.669367900001816	0.03341030003502965
1	15.770583600038663	stim	321		2	ambiguous	ambiguous	preferred	600.0		20.702778200036846	0.03337449999526143
1	15.803958100033924	stim	322		2	ambiguous	ambiguous	preferred	600.0		20.736152700032108	0.03338080004323274
1	15.837338900077157	stim	323		2	ambiguous	ambiguous	preferred	600.0		20.76953350007534	0.03333729994483292
1	15.87067620002199	stim	324		2	ambiguous	ambiguous	preferred	600.0		20.802870800020173	0.03334229998290539
1	15.904018500004895	stim	325		2	ambiguous	ambiguous	preferred	600.0		20.83621310000308	0.03335230005905032
1	15.937370800063945	stim	326		2	ambiguous	ambiguous	preferred	600.0		20.86956540006213	0.03323850000742823
1	15.970609300071374	stim	327		2	ambiguous	ambiguous	preferred	600.0		20.902803900069557	0.033352799946442246
1	16.003962100017816	stim	328		2	ambiguous	ambiguous	preferred	600.0		20.936156700016	0.033309999969787896
1	16.037272099987604	stim	329		2	ambiguous	ambiguous	preferred	600.0		20.969466699985787	0.0333600000012666
1	16.07063209998887	stim	330		2	ambiguous	ambiguous	preferred	600.0		21.002826699987054	0.03345470002386719
1	16.104086800012738	stim	331		2	ambiguous	ambiguous	preferred	600.0		21.03628140001092	0.03330250002909452
1	16.137389300041832	stim	332		2	ambiguous	ambiguous	preferred	600.0		21.069583900040016	0.033270200015977025
1	16.17065950005781	stim	333		2	ambiguous	ambiguous	preferred	600.0		21.102854100055993	0.03327060001902282
1	16.203930100076832	stim	334		2	ambiguous	ambiguous	preferred	600.0		21.136124700075015	0.03332529996987432
1	16.237255400046706	stim	335		2	ambiguous	ambiguous	preferred	600.0		21.16945000004489	0.03335579996928573
1	16.270611200015992	stim	336		2	ambiguous	ambiguous	preferred	600.0		21.202805800014175	0.03346950002014637
1	16.30408070003614	stim	337		2	ambiguous	ambiguous	preferred	600.0		21.236275300034322	0.03352459997404367
1	16.337605300010182	stim	338		2	ambiguous	ambiguous	preferred	600.0		21.269799900008366	0.03323429997544736
1	16.37083959998563	stim	339		2	ambiguous	ambiguous	preferred	600.0		21.303034199983813	0.033348000026308
1	16.404187600011937	stim	340		2	ambiguous	ambiguous	preferred	600.0		21.33638220001012	0.033322300063446164
1	16.437509900075383	stim	341		2	ambiguous	ambiguous	preferred	600.0		21.369704500073567	0.03355039993766695
1	16.47106030001305	stim	342		2	ambiguous	ambiguous	preferred	600.0		21.403254900011234	0.0333673000568524
1	16.504427600069903	stim	343		2	ambiguous	ambiguous	preferred	600.0		21.436622200068086	0.03352599998470396
1	16.537953600054607	stim	344		2	ambiguous	ambiguous	preferred	600.0		21.47014820005279	0.03315699996892363
1	16.57111060002353	stim	345		2	ambiguous	ambiguous	preferred	600.0		21.503305200021714	0.03355679998639971
1	16.60466740000993	stim	346		2	ambiguous	ambiguous	preferred	600.0		21.536862000008114	0.03319670003838837
1	16.63786410004832	stim	347		2	ambiguous	ambiguous	preferred	600.0		21.570058700046502	0.03359290002845228
1	16.67145700007677	stim	348		2	ambiguous	ambiguous	preferred	600.0		21.603651600074954	0.033293799962848425
1	16.70475080003962	stim	349		2	ambiguous	ambiguous	preferred	600.0		21.636945400037803	0.03335539996623993
1	16.73810620000586	stim	350		2	ambiguous	ambiguous	preferred	600.0		21.670300800004043	0.03329469996970147
1	16.77140089997556	stim	351		2	ambiguous	ambiguous	preferred	600.0		21.703595499973744	0.03328010009136051
1	16.80468100006692	stim	352		2	ambiguous	ambiguous	preferred	600.0		21.736875600065105	0.03346800000872463
1	16.838149000075646	stim	353		2	ambiguous	ambiguous	preferred	600.0		21.77034360007383	0.03338369994889945
1	16.871532700024545	stim	354		2	ambiguous	ambiguous	preferred	600.0		21.80372730002273	0.033446499961428344
1	16.904979199985974	stim	355		2	ambiguous	ambiguous	preferred	600.0		21.837173799984157	0.03345740004442632
1	16.9384366000304	stim	356		2	ambiguous	ambiguous	preferred	600.0		21.870631200028583	0.03410329995676875
1	16.97253989998717	stim	357		2	ambiguous	ambiguous	preferred	600.0		21.904734499985352	0.04999940004199743
1	17.022539300029166	stim	358		2	ambiguous	ambiguous	preferred	600.0		21.95473390002735	0.03353170002810657
1	17.056071000057273	stim	359		2	ambiguous	ambiguous	preferred	600.0		21.988265600055456	0.03309779998380691
1	17.08916880004108	stim	360		2	ambiguous	ambiguous	preferred	600.0		22.021363400039263	0.03334520000498742
1	17.122514000046067	stim	361		2	ambiguous	ambiguous	preferred	600.0		22.05470860004425	0.033600299968384206
1	17.15611430001445	stim	362		2	ambiguous	ambiguous	preferred	600.0		22.088308900012635	0.03347400005441159
1	17.189588300068863	stim	363		2	ambiguous	ambiguous	preferred	600.0		22.121782900067046	0.03323509998153895
1	17.2228234000504	stim	364		2	ambiguous	ambiguous	preferred	600.0		22.155018000048585	0.03345170000102371
1	17.256275100051425	stim	365		2	ambiguous	ambiguous	preferred	600.0		22.18846970004961	0.033311799983493984
1	17.28958690003492	stim	366		2	ambiguous	ambiguous	preferred	600.0		22.221781500033103	0.0336126999463886
1	17.323199599981308	stim	367		2	ambiguous	ambiguous	preferred	600.0		22.25539419997949	0.033542599994689226
1	17.356742199975997	stim	368		2	ambiguous	ambiguous	preferred	600.0		22.28893679997418	0.03322640003170818
1	17.389968600007705	stim	369		2	ambiguous	ambiguous	preferred	600.0		22.32216320000589	0.03359900007490069
1	17.423567600082606	stim	370		2	ambiguous	ambiguous	preferred	600.0		22.35576220008079	0.033385699964128435
1	17.456953300046735	stim	371		2	ambiguous	ambiguous	preferred	600.0		22.389147900044918	0.04982489999383688
1	17.50677820004057	stim	372		2	ambiguous	ambiguous	preferred	600.0		22.438972800038755	0.03332279995083809
1	17.54010099999141	stim	373		2	ambiguous	ambiguous	preferred	600.0		22.472295599989593	0.03363790002185851
1	17.573738900013268	stim	374		2	ambiguous	ambiguous	preferred	600.0		22.50593350001145	0.033228600048460066
1	17.606967500061728	stim	375		2	ambiguous	ambiguous	preferred	600.0		22.53916210005991	0.03333559993188828
1	17.640303099993616	stim	376		2	ambiguous	ambiguous	preferred	600.0		22.5724976999918	0.0334612000733614
1	17.673764300066978	stim	377		2	ambiguous	ambiguous	preferred	600.0		22.60595890006516	0.03318889997899532
1	17.706953200045973	stim	378		2	ambiguous	ambiguous	preferred	600.0		22.639147800044157	0.03343249997124076
1	17.740385700017214	stim	379		2	ambiguous	ambiguous	preferred	600.0		22.672580300015397	0.03353360004257411
1	17.773919300059788	stim	380		2	ambiguous	ambiguous	preferred	600.0		22.70611390005797	0.03327249991707504
1	17.807191799976863	stim	381		2	ambiguous	ambiguous	preferred	600.0		22.739386399975047	0.03330760006792843
1	17.84049940004479	stim	382		2	ambiguous	ambiguous	preferred	600.0		22.772694000042975	0.033354599960148335
1	17.87385400000494	stim	383		2	ambiguous	ambiguous	preferred	600.0		22.806048600003123	0.03328109998255968
1	17.9071350999875	stim	384		2	ambiguous	ambiguous	preferred	600.0		22.839329699985683	0.03352470009122044
1	17.94065980007872	stim	385		2	ambiguous	ambiguous	preferred	600.0		22.872854400076903	0.03322739992290735
1	17.973887200001627	stim	386		2	ambiguous	ambiguous	preferred	600.0		22.90608179999981	0.03393620008137077
1	18.007823400082998	stim	387		2	ambiguous	ambiguous	preferred	600.0		22.94001800008118	0.03319379989989102
1	18.04101719998289	stim	388		2	ambiguous	ambiguous	preferred	600.0		22.973211799981073	0.033450899994932115
1	18.07446809997782	stim	389		2	ambiguous	ambiguous	preferred	600.0		23.006662699976005	0.033756299992091954
1	18.108224399969913	stim	390		2	ambiguous	ambiguous	preferred	600.0		23.040418999968097	0.03345440002158284
1	18.141678799991496	stim	391		2	ambiguous	ambiguous	preferred	600.0		23.07387339998968	0.03322230000048876
1	18.174901099991985	stim	392		2	ambiguous	ambiguous	preferred	600.0		23.107095699990168	0.033707600086927414
1	18.208608700078912	stim	393		2	ambiguous	ambiguous	preferred	600.0		23.140803300077096	0.03331400000024587
1	18.241922700079158	stim	394		2	ambiguous	ambiguous	preferred	600.0		23.17411730007734	0.03360249998513609
1	18.275525200064294	stim	395		2	ambiguous	ambiguous	preferred	600.0		23.207719800062478	0.033327899989672005
1	18.308853100053966	stim	396		2	ambiguous	ambiguous	preferred	600.0		23.24104770005215	0.03337339998688549
1	18.34222650004085	stim	397		2	ambiguous	ambiguous	preferred	600.0		23.274421100039035	0.0499769999878481
1	18.3922035000287	stim	398		2	ambiguous	ambiguous	preferred	600.0		23.324398100026883	0.03350200003478676
1	18.425705500063486	stim	399		2	ambiguous	ambiguous	preferred	600.0		23.35790010006167	0.033055200008675456
1	18.458760700072162	stim	400		2	ambiguous	ambiguous	preferred	600.0		23.390955300070345	0.033310199971310794
1	18.492070900043473	stim	401		2	ambiguous	ambiguous	preferred	600.0		23.424265500041656	0.033412099932320416
1	18.525482999975793	stim	402		2	ambiguous	ambiguous	preferred	600.0		23.457677599973977	0.033217200078070164
1	18.558700200053863	stim	403		2	ambiguous	ambiguous	preferred	600.0		23.490894800052047	0.03330649994313717
1	18.592006699997	stim	404		2	ambiguous	ambiguous	preferred	600.0		23.524201299995184	0.033648099983111024
1	18.62565479998011	stim	405		2	ambiguous	ambiguous	preferred	600.0		23.557849399978295	0.03340120008215308
1	18.659056000062265	stim	406		2	ambiguous	ambiguous	preferred	600.0		23.591250600060448	0.03366519999690354
1	18.692721200059168	stim	407		2	ambiguous	ambiguous	preferred	600.0		23.62491580005735	0.03323970001656562
1	18.725960900075734	stim	408		2	ambiguous	ambiguous	preferred	600.0		23.658155500073917	0.03341949998866767
1	18.7593804000644	stim	409		2	ambiguous	ambiguous	preferred	600.0		23.691575000062585	0.0331612000009045
1	18.792541600065306	stim	410		2	ambiguous	ambiguous	preferred	600.0		23.72473620006349	0.03352249995805323
1	18.82606410002336	stim	411		2	ambiguous	ambiguous	preferred	600.0		23.758258700021543	0.033370999968610704
1	18.85943509999197	stim	412		2	ambiguous	ambiguous	preferred	600.0		23.791629699990153	0.033355000079609454
1	18.89279010007158	stim	413		2	ambiguous	ambiguous	preferred	600.0		23.824984700069763	0.033477599965408444
1	18.926267700036988	stim	414		2	ambiguous	ambiguous	preferred	600.0		23.85846230003517	0.03324829996563494
1	18.959516000002623	stim	415		2	ambiguous	ambiguous	preferred	600.0		23.891710600000806	0.03350810008123517
1	18.993024100083858	stim	416		2	ambiguous	ambiguous	preferred	600.0		23.92521870008204	0.03377039998304099
1	19.0267945000669	stim	417		2	ambiguous	ambiguous	preferred	600.0		23.958989100065082	0.03335549996700138
1	19.0601500000339	stim	418		2	ambiguous	ambiguous	preferred	600.0		23.992344600032084	0.0332971999887377
1	19.093447200022638	stim	419		2	ambiguous	ambiguous	preferred	600.0		24.02564180002082	0.033616699976846576
1	19.127063899999484	stim	420		2	ambiguous	ambiguous	preferred	600.0		24.059258499997668	0.03336130001116544
1	19.16042520001065	stim	421		2	ambiguous	ambiguous	preferred	600.0		24.092619800008833	0.0333173000253737
1	19.193742500036024	stim	422		2	ambiguous	ambiguous	preferred	600.0		24.125937100034207	0.03334700001869351
1	19.227089500054717	stim	423		2	ambiguous	ambiguous	preferred	600.0		24.1592841000529	0.03337449999526143
1	19.26046400004998	stim	424		2	ambiguous	ambiguous	preferred	600.0		24.192658600048162	0.03363429999444634
1	19.294098300044425	stim	425		2	ambiguous	ambiguous	preferred	600.0		24.22629290004261	0.03406199999153614
1	19.32816030003596	stim	426		2	ambiguous	ambiguous	preferred	600.0		24.260354900034145	0.05080420000012964
1	19.37896450003609	stim	427		2	ambiguous	ambiguous	preferred	600.0		24.311159100034274	0.033034499967470765
1	19.41199900000356	stim	428		2	ambiguous	ambiguous	preferred	600.0		24.344193600001745	0.033203499973751605
1	19.445202499977313	stim	429		2	ambiguous	ambiguous	preferred	600.0		24.377397099975497	0.033261300064623356
1	19.478463800041936	stim	430		2	ambiguous	ambiguous	preferred	600.0		24.41065840004012	0.033390199998393655
1	19.51185400004033	stim	431		2	ambiguous	ambiguous	preferred	600.0		24.444048600038514	0.03314069996122271
1	19.544994700001553	stim	432		2	ambiguous	ambiguous	preferred	600.0		24.477189299999736	0.03331570001319051
1	19.578310400014743	stim	433		2	ambiguous	ambiguous	preferred	600.0		24.510505000012927	0.03347949997987598
1	19.61178989999462	stim	434		2	ambiguous	ambiguous	preferred	600.0		24.543984499992803	0.033510099980048835
1	19.645299999974668	stim	435		2	ambiguous	ambiguous	preferred	600.0		24.57749459997285	0.03363530000206083
1	19.67893529997673	stim	436		2	ambiguous	ambiguous	preferred	600.0		24.611129899974912	0.03531870001461357
1	19.714253999991342	stim	437		2	ambiguous	ambiguous	preferred	600.0		24.646448599989526	0.031216799980029464
1	19.745470799971372	stim	438		2	ambiguous	ambiguous	preferred	600.0		24.677665399969555	0.03523310006130487
1	19.780703900032677	stim	439		2	ambiguous	ambiguous	preferred	600.0		24.71289850003086	0.0481283999979496
1	19.828832300030626	stim	440		2	ambiguous	ambiguous	preferred	600.0		24.76102690002881	0.03554850001819432
1	19.86438080004882	stim	441		2	ambiguous	ambiguous	preferred	600.0		24.796575400047004	0.032816799939610064
1	19.89719759998843	stim	442		2	ambiguous	ambiguous	preferred	600.0		24.829392199986614	0.03311269998084754
1	19.93031029996928	stim	443		2	ambiguous	ambiguous	preferred	600.0		24.862504899967462	0.03341520007234067
1	19.96372550004162	stim	444		2	ambiguous	ambiguous	preferred	600.0		24.895920100039802	0.033322099945507944
1	19.997047599987127	stim	445		2	ambiguous	ambiguous	preferred	600.0		24.92924219998531	0.03327130002435297
1	20.03031890001148	stim	446		2	ambiguous	ambiguous	preferred	600.0		24.962513500009663	0.03359570004977286
1	20.063914600061253	stim	447		2	ambiguous	ambiguous	preferred	600.0		24.996109200059436	0.03304449992720038
1	20.096959099988453	stim	448		2	ambiguous	ambiguous	preferred	600.0		25.029153699986637	0.03337610000744462
1	20.130335199995898	stim	449		2	ambiguous	ambiguous	preferred	600.0		25.06252979999408	0.03333140001632273
1	20.16366660001222	stim	450		2	ambiguous	ambiguous	preferred	600.0		25.095861200010404	0.033350200043059886
1	20.19701680005528	stim	451		2	ambiguous	ambiguous	preferred	600.0		25.129211400053464	0.033338299952447414
1	20.230355100007728	stim	452		2	ambiguous	ambiguous	preferred	600.0		25.16254970000591	0.033309899969026446
1	20.263664999976754	stim	453		2	ambiguous	ambiguous	preferred	600.0		25.195859599974938	0.03362330002710223
1	20.297288300003856	stim	454		2	ambiguous	ambiguous	preferred	600.0		25.22948290000204	0.03311580000445247
1	20.33040410000831	stim	455		2	ambiguous	ambiguous	preferred	600.0		25.262598700006492	0.03335969999898225
1	20.36376380000729	stim	456		2	ambiguous	ambiguous	preferred	600.0		25.295958400005475	0.033807900035753846
1	20.397571700043045	stim	457		2	ambiguous	ambiguous	preferred	600.0		25.32976630004123	0.033313199994154274
1	20.4308849000372	stim	458		2	ambiguous	ambiguous	preferred	600.0		25.363079500035383	0.03336110000964254
1	20.464246000046842	stim	459		2	ambiguous	ambiguous	preferred	600.0		25.396440600045025	0.03376559994649142
1	20.498011599993333	stim	460		2	ambiguous	ambiguous	preferred	600.0		25.430206199991517	0.03300890000537038
1	20.531020499998704	stim	461		2	ambiguous	ambiguous	preferred	600.0		25.463215099996887	0.03368400002364069
1	20.564704500022344	stim	462		2	ambiguous	ambiguous	preferred	600.0		25.496899100020528	0.0337330000475049
1	20.59843750006985	stim	463		2	ambiguous	ambiguous	preferred	600.0		25.530632100068033	0.033323299954645336
1	20.631760800024495	stim	464		2	ambiguous	ambiguous	preferred	600.0		25.563955400022678	0.03335489996243268
1	20.665115699986927	stim	465		2	ambiguous	ambiguous	preferred	600.0		25.59731029998511	0.03333750006277114
1	20.6984532000497	stim	466		2	ambiguous	ambiguous	preferred	600.0		25.630647800047882	0.033622700022533536
1	20.732075900072232	stim	467		2	ambiguous	ambiguous	preferred	600.0		25.664270500070415	0.03309249994345009
1	20.765168400015682	stim	468		2	ambiguous	ambiguous	preferred	600.0		25.697363000013866	0.033578500035218894
1	20.7987469000509	stim	469		2	ambiguous	ambiguous	preferred	600.0		25.730941500049084	0.03334149997681379
1	20.832088400027715	stim	470		2	ambiguous	ambiguous	preferred	600.0		25.764283000025898	0.03332449996378273
1	20.865412899991497	stim	471		2	ambiguous	ambiguous	preferred	600.0		25.79760749998968	0.03347730007953942
1	20.898890200071037	stim	472		2	ambiguous	ambiguous	preferred	600.0		25.83108480006922	0.0333713999716565
1	20.932261600042693	stim	473		2	ambiguous	ambiguous	preferred	600.0		25.864456200040877	0.03348560002632439
1	20.965747200069018	stim	474		2	ambiguous	ambiguous	preferred	600.0		25.8979418000672	0.0339053999632597
1	20.999652600032277	stim	475		2	ambiguous	ambiguous	preferred	600.0		25.93184720003046	0.033485000021755695
1	21.033137600054033	stim	476		2	ambiguous	ambiguous	preferred	600.0		25.965332200052217	0.03318889997899532
1	21.06632650003303	stim	477		2	ambiguous	ambiguous	preferred	600.0		25.998521100031212	0.03355219995137304
1	21.0998786999844	stim	478		2	ambiguous	ambiguous	preferred	600.0		26.032073299982585	0.03322970005683601
1	21.133108400041237	stim	479		2	ambiguous	ambiguous	preferred	600.0		26.06530300003942	0.03377179999370128
1	21.16688020003494	stim	480		2	ambiguous	ambiguous	preferred	600.0		26.099074800033122	0.03326199995353818
1	21.200142199988477	stim	481		2	ambiguous	ambiguous	preferred	600.0		26.13233679998666	0.03376100002788007
1	21.233903200016357	stim	482		2	ambiguous	ambiguous	preferred	600.0		26.16609780001454	0.03373030002694577
1	21.267633500043303	stim	483		2	ambiguous	ambiguous	preferred	600.0		26.199828100041486	0.033421400003135204
1	21.301054900046438	stim	484		2	ambiguous	ambiguous	preferred	600.0		26.23324950004462	0.03325570002198219
1	21.33431060006842	stim	485		2	ambiguous	ambiguous	preferred	600.0		26.266505200066604	0.03371059999335557
1	21.368021200061776	stim	486		2	ambiguous	ambiguous	preferred	600.0		26.30021580005996	0.033914699917659163
1	21.401935899979435	stim	487		2	ambiguous	ambiguous	preferred	600.0		26.33413049997762	0.033222900005057454
1	21.435158799984492	stim	488		2	ambiguous	ambiguous	preferred	600.0		26.367353399982676	0.03333590005058795
1	21.46849470003508	stim	489		2	ambiguous	ambiguous	preferred	600.0		26.400689300033264	0.03350459993816912
1	21.50199929997325	stim	490		2	ambiguous	ambiguous	preferred	600.0		26.434193899971433	0.033268900006078184
1	21.535268199979328	stim	491		2	ambiguous	ambiguous	preferred	600.0		26.46746279997751	0.033664399990811944
1	21.56893259997014	stim	492		2	ambiguous	ambiguous	preferred	600.0		26.501127199968323	0.033573799999430776
1	21.60250639996957	stim	493		2	ambiguous	ambiguous	preferred	600.0		26.534700999967754	0.03369770001154393
1	21.636204099981114	stim	494		2	ambiguous	ambiguous	preferred	600.0		26.568398699979298	0.03377920005004853
1	21.669983300031163	stim	495		2	ambiguous	ambiguous	preferred	600.0		26.602177900029346	0.033493699971586466
1	21.70347700000275	stim	496		2	ambiguous	ambiguous	preferred	600.0		26.635671600000933	0.03319670003838837
1	21.736673700041138	stim	497		2	ambiguous	ambiguous	preferred	600.0		26.66886830003932	0.03371360001619905
1	21.770387300057337	stim	498		2	ambiguous	ambiguous	preferred	600.0		26.70258190005552	0.033935199957340956
1	21.804322500014678	stim	499		2	ambiguous	ambiguous	preferred	600.0		26.73651710001286	0.033299700007773936
1	21.83762220002245	stim	500		2	ambiguous	ambiguous	preferred	600.0		26.769816800020635	0.03332130005583167
1	21.870943500078283	stim	501		2	ambiguous	ambiguous	preferred	600.0		26.803138100076467	0.03396389994304627
1	21.90490740002133	stim	502		2	ambiguous	ambiguous	preferred	600.0		26.837102000019513	0.03306909999810159
1	21.93797650001943	stim	503		2	ambiguous	ambiguous	preferred	600.0		26.870171100017615	0.0332977999933064
1	21.971274300012738	stim	504		2	ambiguous	ambiguous	preferred	600.0		26.90346890001092	0.03352559998165816
1	22.004799899994396	stim	505		2	ambiguous	ambiguous	preferred	600.0		26.93699449999258	0.03323990001808852
1	22.038039800012484	stim	506		2	ambiguous	ambiguous	preferred	600.0		26.970234400010668	0.033319000038318336
1	22.071358800050803	stim	507		2	ambiguous	ambiguous	preferred	600.0		27.003553400048986	0.034200499998405576
1	22.105559300049208	stim	508		2	ambiguous	ambiguous	preferred	600.0		27.03775390004739	0.03349709999747574
1	22.139056400046684	stim	509		2	ambiguous	ambiguous	preferred	600.0		27.071251000044867	0.033738499972969294
1	22.172794900019653	stim	510		2	ambiguous	ambiguous	preferred	600.0		27.104989500017837	0.033935199957340956
1	22.206730099976994	stim	511		2	ambiguous	ambiguous	preferred	600.0		27.138924699975178	0.033949000062420964
1	22.240679100039415	stim	512		2	ambiguous	ambiguous	preferred	600.0		27.1728737000376	0.03358679998200387
1	22.27426590002142	stim	513		2	ambiguous	ambiguous	preferred	600.0		27.206460500019602	0.03358839999418706
1	22.307854300015606	stim	514		2	ambiguous	ambiguous	preferred	600.0		27.24004890001379	0.03366019995883107
1	22.341514499974437	stim	515		2	ambiguous	ambiguous	preferred	600.0		27.27370909997262	0.03323800000362098
1	22.374752499978058	stim	516		2	ambiguous	ambiguous	preferred	600.0		27.30694709997624	0.03342350001912564
1	22.408175999997184	stim	517		2	ambiguous	ambiguous	preferred	600.0		27.340370599995367	0.03365670004859567
1	22.44183270004578	stim	518		2	ambiguous	ambiguous	preferred	600.0		27.374027300043963	0.033296599984169006
1	22.47512930002995	stim	519		2	ambiguous	ambiguous	preferred	600.0		27.407323900028132	0.03340710001066327
1	22.50853640004061	stim	520		2	ambiguous	ambiguous	preferred	600.0		27.440731000038795	0.033597399946302176
1	22.542133799986914	stim	521		2	ambiguous	ambiguous	preferred	600.0		27.474328399985097	0.03369220008607954
1	22.575826000072993	stim	522		2	ambiguous	ambiguous	preferred	600.0		27.508020600071177	0.03331249998882413
1	22.609138500061817	stim	523		2	ambiguous	ambiguous	preferred	600.0		27.54133310006	0.03335529996547848
1	22.642493800027296	stim	524		2	ambiguous	ambiguous	preferred	600.0		27.57468840002548	0.0339864999987185
1	22.676480300026014	stim	525		2	ambiguous	ambiguous	preferred	600.0		27.608674900024198	0.03347100003156811
1	22.709951300057583	stim	526		2	ambiguous	ambiguous	preferred	600.0		27.642145900055766	0.03358619997743517
1	22.743537500035018	stim	527		2	ambiguous	ambiguous	preferred	600.0		27.6757321000332	0.033493799972347915
1	22.777031300007366	stim	528		2	ambiguous	ambiguous	preferred	600.0		27.70922590000555	0.033396200044080615
1	22.810427500051446	stim	529		2	ambiguous	ambiguous	preferred	600.0		27.74262210004963	0.033314800006337464
1	22.843742300057784	stim	530		2	ambiguous	ambiguous	preferred	600.0		27.775936900055967	0.033390399999916553
1	22.8771327000577	stim	531		2	ambiguous	ambiguous	preferred	600.0		27.809327300055884	0.03354380000382662
1	22.910676500061527	stim	532		2	ambiguous	ambiguous	preferred	600.0		27.84287110005971	0.03305029997136444
1	22.94372680003289	stim	533		2	ambiguous	ambiguous	preferred	600.0		27.875921400031075	0.03337329998612404
1	22.977100100019015	stim	534		2	ambiguous	ambiguous	preferred	600.0		27.9092947000172	0.03346629999577999
1	23.010566400014795	stim	535		2	ambiguous	ambiguous	preferred	600.0		27.94276100001298	0.03345139999873936
1	23.044017800013535	stim	536		2	ambiguous	ambiguous	preferred	600.0		27.97621240001172	0.03340900002513081
1	23.077426800038666	stim	537		2	ambiguous	ambiguous	preferred	600.0		28.00962140003685	0.03336749994195998
1	23.110794299980626	stim	538		2	ambiguous	ambiguous	preferred	600.0		28.04298889997881	0.033588699996471405
1	23.144382999977097	stim	539		2	ambiguous	ambiguous	preferred	600.0		28.07657759997528	0.0334797000978142
1	23.17786270007491	stim	540		2	ambiguous	ambiguous	preferred	600.0		28.110057300073095	0.033440399914979935
1	23.21130309998989	stim	541		2	ambiguous	ambiguous	preferred	600.0		28.143497699988075	0.03341660008300096
1	23.244719700072892	stim	542		2	ambiguous	ambiguous	preferred	600.0		28.176914300071076	0.033321799943223596
1	23.278041500016116	stim	543		2	ambiguous	ambiguous	preferred	600.0		28.2102361000143	0.03556890005711466
1	23.31361040007323	stim	544		2	ambiguous	ambiguous	preferred	600.0		28.245805000071414	0.033336799941025674
1	23.346947200014256	stim	545		2	ambiguous	ambiguous	preferred	600.0		28.27914180001244	0.03330340003594756
1	23.380250600050204	stim	546		2	ambiguous	ambiguous	preferred	600.0		28.312445200048387	0.033539599971845746
1	23.41379020002205	stim	547		2	ambiguous	ambiguous	preferred	600.0		28.345984800020233	0.033135200035758317
1	23.446925400057808	stim	548		2	ambiguous	ambiguous	preferred	600.0		28.37912000005599	0.03338309994433075
1	23.48030850000214	stim	549		2	ambiguous	ambiguous	preferred	600.0		28.412503100000322	0.03337780002038926
1	23.513686300022528	stim	550		2	ambiguous	ambiguous	preferred	600.0		28.44588090002071	0.03330010001081973
1	23.546986400033347	stim	551		2	ambiguous	ambiguous	preferred	600.0		28.47918100003153	0.03327549993991852
1	23.580261899973266	stim	552		2	ambiguous	ambiguous	preferred	600.0		28.51245649997145	0.03332430007867515
1	23.61358620005194	stim	553		2	ambiguous	ambiguous	preferred	600.0		28.545780800050125	0.03336150001268834
1	23.64694770006463	stim	554		2	ambiguous	ambiguous	preferred	600.0		28.579142300062813	0.03328809991944581
1	23.680235799984075	stim	555		2	ambiguous	ambiguous	preferred	600.0		28.61243039998226	0.03351079998537898
1	23.713746599969454	stim	556		2	ambiguous	ambiguous	preferred	600.0		28.645941199967638	0.0333244000794366
1	23.74707100004889	stim	557		2	ambiguous	ambiguous	preferred	600.0		28.679265600047074	0.033314500004053116
1	23.780385500052944	stim	558		2	ambiguous	ambiguous	preferred	600.0		28.712580100051127	0.03323209995869547
1	23.81361760001164	stim	559		2	ambiguous	ambiguous	preferred	600.0		28.745812200009823	0.0334965999936685
1	23.847114200005308	stim	560		2	ambiguous	ambiguous	preferred	600.0		28.77930880000349	0.03336780006065965
1	23.880482000065967	stim	561		2	ambiguous	ambiguous	preferred	600.0		28.81267660006415	0.034192999941296875
1	23.914675000007264	stim	562		2	ambiguous	ambiguous	preferred	600.0		28.846869600005448	0.03311660001054406
1	23.94779160001781	stim	563		2	ambiguous	ambiguous	preferred	600.0		28.879986200015992	0.03366059996187687
1	23.981452199979685	stim	564		2	ambiguous	ambiguous	preferred	600.0		28.91364679997787	0.03332030004821718
1	24.014772500027902	stim	565		2	ambiguous	ambiguous	preferred	600.0		28.946967100026086	0.033852300024591386
1	24.048624800052494	stim	566		2	ambiguous	ambiguous	preferred	600.0		28.980819400050677	0.03363800002261996
1	24.082262800075114	stim	567		2	ambiguous	ambiguous	preferred	600.0		29.014457400073297	0.03366339998319745
1	24.11592620005831	stim	568		2	ambiguous	ambiguous	preferred	600.0		29.048120800056495	0.033554699970409274
1	24.14948090002872	stim	569		2	ambiguous	ambiguous	preferred	600.0		29.081675500026904	0.03342840005643666
1	24.182909300085157	stim	570		2	ambiguous	ambiguous	preferred	600.0		29.11510390008334	0.03326529997866601
1	24.216174600063823	stim	571		2	ambiguous	ambiguous	preferred	600.0		29.148369200062007	0.03334059996996075
1	24.249515200033784	stim	572		2	ambiguous	ambiguous	preferred	600.0		29.181709800031967	0.03369059995748103
1	24.283205799991265	stim	573		2	ambiguous	ambiguous	preferred	600.0		29.21540039998945	0.033839400042779744
1	24.317045200034045	stim	574		2	ambiguous	ambiguous	preferred	600.0		29.24923980003223	0.033305599936284125
1	24.35035079997033	stim	575		2	ambiguous	ambiguous	preferred	600.0		29.282545399968512	0.033176000113599
1	24.383526800083928	stim	576		2	ambiguous	ambiguous	preferred	600.0		29.31572140008211	0.033631699974648654
1	24.417158500058576	stim	577		2	ambiguous	ambiguous	preferred	600.0		29.34935310005676	0.03334490000270307
1	24.45050340006128	stim	578		2	ambiguous	ambiguous	preferred	600.0		29.382698000059463	0.033287599915638566
1	24.483790999976918	stim	579		2	ambiguous	ambiguous	preferred	600.0		29.4159855999751	0.03368180000688881
1	24.517472799983807	stim	580		2	ambiguous	ambiguous	preferred	600.0		29.44966739998199	0.033452300005592406
1	24.5509250999894	stim	581		2	ambiguous	ambiguous	preferred	600.0		29.483119699987583	0.033243800047785044
1	24.584168900037184	stim	582		2	ambiguous	ambiguous	preferred	600.0		29.516363500035368	0.033317700028419495
1	24.617486600065604	stim	583		2	ambiguous	ambiguous	preferred	600.0		29.549681200063787	0.03367649996653199
1	24.651163100032136	stim	584		2	ambiguous	ambiguous	preferred	600.0		29.58335770003032	0.03373919997829944
1	24.684902300010435	stim	585		2	ambiguous	ambiguous	preferred	600.0		29.61709690000862	0.03341170004568994
1	24.718314000056125	stim	586		2	ambiguous	ambiguous	preferred	600.0		29.65050860005431	0.03332609997596592
1	24.75164010003209	stim	587		2	ambiguous	ambiguous	preferred	600.0		29.683834700030275	0.03357760002836585
1	24.785217700060457	stim	588		2	ambiguous	ambiguous	preferred	600.0		29.71741230005864	0.03365019999910146
1	24.81886790005956	stim	589		2	ambiguous	ambiguous	preferred	600.0		29.751062500057742	0.03339639992918819
1	24.852264299988747	stim	590		2	ambiguous	ambiguous	preferred	600.0		29.78445889998693	0.03344780008774251
1	24.88571210007649	stim	591		2	ambiguous	ambiguous	preferred	600.0		29.817906700074673	0.03333419992122799
1	24.919046299997717	stim	592		2	ambiguous	ambiguous	preferred	600.0		29.8512408999959	0.033363400027155876
1	24.952409700024873	stim	593		2	ambiguous	ambiguous	preferred	600.0		29.884604300023057	0.03334379999432713
1	24.9857535000192	stim	594		2	ambiguous	ambiguous	preferred	600.0		29.917948100017384	0.03330520004965365
1	25.019058700068854	stim	595		2	ambiguous	ambiguous	preferred	600.0		29.951253300067037	0.033718999940901995
1	25.052777700009756	stim	596		2	ambiguous	ambiguous	preferred	600.0		29.98497230000794	0.03323820000514388
1	25.0860159000149	stim	597		2	ambiguous	ambiguous	preferred	600.0		30.018210500013083	0.033541299984790385
1	25.11955719999969	stim	598		2	ambiguous	ambiguous	preferred	600.0		30.051751799997874	0.033544200006872416
1	25.153101400006562	stim	599		2	ambiguous	ambiguous	preferred	600.0		30.085296000004746	0.03323679999448359
0	25.186338200001046	stim	0		0	break	break	preferred	1.0		30.11853279999923	0.00476619997061789
2	25.191104399971664	stim	0		2	unambiguous	left	preferred	70.0		30.123298999969848	0.02877730003092438
2	25.21988170000259	stim	1		2	unambiguous	left	preferred	70.0		30.152076300000772	0.03329479997046292
2	25.25317649997305	stim	2		2	unambiguous	left	preferred	70.0		30.185371099971235	0.03336630004923791
2	25.28654280002229	stim	3		2	unambiguous	left	preferred	70.0		30.218737400020473	0.03363379999063909
2	25.32017660001293	stim	4		2	unambiguous	left	preferred	70.0		30.252371200011112	0.03361899999435991
2	25.353795600007288	stim	5		2	unambiguous	left	preferred	70.0		30.28599020000547	0.03304310003295541
2	25.386838700040244	stim	6		2	unambiguous	left	preferred	70.0		30.319033300038427	0.033652500016614795
2	25.42049120005686	stim	7		2	unambiguous	left	preferred	70.0		30.352685800055042	0.033318999921903014
2	25.45381019997876	stim	8		2	unambiguous	left	preferred	70.0		30.386004799976945	0.03354530001524836
2	25.48735549999401	stim	9		2	unambiguous	left	preferred	70.0		30.419550099992193	0.03332010004669428
2	25.520675600040704	stim	10		2	unambiguous	left	preferred	70.0		30.452870200038888	0.033701600041240454
2	25.554377200081944	stim	11		2	unambiguous	left	preferred	70.0		30.486571800080128	0.033450799994170666
2	25.587828000076115	stim	12		2	unambiguous	left	preferred	70.0		30.5200226000743	0.033766199951060116
2	25.621594200027175	stim	13		2	unambiguous	left	preferred	70.0		30.55378880002536	0.03392580000218004
2	25.655520000029355	stim	14		2	unambiguous	left	preferred	70.0		30.58771460002754	0.0339862999971956
2	25.68950630002655	stim	15		2	unambiguous	left	preferred	70.0		30.621700900024734	0.03357209998648614
2	25.723078400013037	stim	16		2	unambiguous	left	preferred	70.0		30.65527300001122	0.033726599998772144
2	25.75680500001181	stim	17		2	unambiguous	left	preferred	70.0		30.688999600009993	0.03346830001100898
2	25.790273300022818	stim	18		2	unambiguous	left	preferred	70.0		30.722467900021	0.03335789998527616
2	25.823631200008094	stim	19		2	unambiguous	left	preferred	70.0		30.755825800006278	0.033302700030617416
2	25.85693390003871	stim	20		2	unambiguous	left	preferred	70.0		30.789128500036895	0.0333520999411121
2	25.890285999979824	stim	21		2	unambiguous	left	preferred	70.0		30.822480599978007	0.03344390005804598
2	25.92372990003787	stim	22		2	unambiguous	left	preferred	70.0		30.855924500036053	0.03382899996358901
2	25.95755890000146	stim	23		2	unambiguous	left	preferred	70.0		30.889753499999642	0.033531100023537874
2	25.991090000024997	stim	24		2	unambiguous	left	preferred	70.0		30.92328460002318	0.03344140003900975
2	26.024531400064006	stim	25		2	unambiguous	left	preferred	70.0		30.95672600006219	0.0334577999310568
2	26.057989199995063	stim	26		2	unambiguous	left	preferred	70.0		30.990183799993247	0.033388699986971915
2	26.091377899982035	stim	27		2	unambiguous	left	preferred	70.0		31.02357249998022	0.03336740005761385
2	26.12474530003965	stim	28		2	unambiguous	left	preferred	70.0		31.056939900037833	0.03344719996675849
2	26.158192500006407	stim	29		2	unambiguous	left	preferred	70.0		31.09038710000459	0.033317700028419495
2	26.191510200034827	stim	30		2	unambiguous	left	preferred	70.0		31.12370480003301	0.03334329999051988
2	26.224853500025347	stim	31		2	unambiguous	left	preferred	70.0		31.15704810002353	0.03332130005583167
2	26.25817480008118	stim	32		2	unambiguous	left	preferred	70.0		31.190369400079362	0.03333849995397031
2	26.29151330003515	stim	33		2	unambiguous	left	preferred	70.0		31.223707900033332	0.03345919994171709
2	26.324972499976866	stim	34		2	unambiguous	left	preferred	70.0		31.25716709997505	0.033550100051797926
2	26.358522600028664	stim	35		2	unambiguous	left	preferred	70.0		31.290717200026847	0.033563600038178265
2	26.392086200066842	stim	36		2	unambiguous	left	preferred	70.0		31.324280800065026	0.03347039991058409
2	26.425556599977426	stim	37		2	unambiguous	left	preferred	70.0		31.35775119997561	0.03324610006529838
2	26.458802700042725	stim	38		2	unambiguous	left	preferred	70.0		31.390997300040908	0.03339959995355457
2	26.49220229999628	stim	39		2	unambiguous	left	preferred	70.0		31.424396899994463	0.03344020002987236
2	26.52564250002615	stim	40		2	unambiguous	left	preferred	70.0		31.457837100024335	0.03333070001099259
2	26.558973200037144	stim	41		2	unambiguous	left	preferred	70.0		31.491167800035328	0.03364699997473508
2	26.59262020001188	stim	42		2	unambiguous	left	preferred	70.0		31.524814800010063	0.033381400047801435
2	26.62600160005968	stim	43		2	unambiguous	left	preferred	70.0		31.558196200057864	0.033413599943742156
2	26.659415200003423	stim	44		2	unambiguous	left	preferred	70.0		31.591609800001606	0.03345670003909618
2	26.69287190004252	stim	45		2	unambiguous	left	preferred	70.0		31.625066500040703	0.033440600032918155
2	26.726312500075437	stim	46		2	unambiguous	left	preferred	70.0		31.65850710007362	0.03375399997457862
2	26.760066500050016	stim	47		2	unambiguous	left	preferred	70.0		31.6922611000482	0.03376709995791316
2	26.79383360000793	stim	48		2	unambiguous	left	preferred	70.0		31.726028200006112	0.03332300006877631
2	26.827156600076705	stim	49		2	unambiguous	left	preferred	70.0		31.75935120007489	0.03342309989966452
2	26.86057969997637	stim	50		2	unambiguous	left	preferred	70.0		31.792774299974553	0.03352630010340363
2	26.894106000079773	stim	51		2	unambiguous	left	preferred	70.0		31.826300600077957	0.03344969998579472
2	26.927555700065568	stim	52		2	unambiguous	left	preferred	70.0		31.85975030006375	0.033697100006975234
2	26.961252800072543	stim	53		2	unambiguous	left	preferred	70.0		31.893447400070727	0.035805199993774295
2	26.997058000066318	stim	54		2	unambiguous	left	preferred	70.0		31.9292526000645	0.03320880001410842
2	27.030266800080426	stim	55		2	unambiguous	left	preferred	70.0		31.96246140007861	0.033287799917161465
2	27.063554599997588	stim	56		2	unambiguous	left	preferred	70.0		31.99574919999577	0.03341789997648448
2	27.096972499974072	stim	57		2	unambiguous	left	preferred	70.0		32.029167099972256	0.03320580010768026
2	27.130178300081752	stim	58		2	unambiguous	left	preferred	70.0		32.062372900079936	0.03352820000145584
2	27.163706500083208	stim	59		2	unambiguous	left	preferred	70.0		32.09590110008139	0.03330049989745021
2	27.19700699998066	stim	60		2	unambiguous	left	preferred	70.0		32.12920159997884	0.03350100002717227
2	27.23050800000783	stim	61		2	unambiguous	left	preferred	70.0		32.162702600006014	0.033166400040499866
2	27.26367440004833	stim	62		2	unambiguous	left	preferred	70.0		32.195869000046514	0.03334550000727177
2	27.297019900055602	stim	63		2	unambiguous	left	preferred	70.0		32.229214500053786	0.033138099941425025
2	27.330157999997027	stim	64		2	unambiguous	left	preferred	70.0		32.26235259999521	0.03334169997833669
2	27.363499699975364	stim	65		2	unambiguous	left	preferred	70.0		32.29569429997355	0.0334224000107497
2	27.396922099986114	stim	66		2	unambiguous	left	preferred	70.0		32.3291166999843	0.033369500073604286
2	27.430291600059718	stim	67		2	unambiguous	left	preferred	70.0		32.3624862000579	0.03382739995140582
2	27.464119000011124	stim	68		2	unambiguous	left	preferred	70.0		32.39631360000931	0.032809199998155236
2	27.49692820000928	stim	69		2	unambiguous	left	preferred	70.0		32.42912280000746	0.03327590005937964
3	27.53020410006866	stim	0		2	unambiguous	right	preferred	67.0		32.46239870006684	0.03387419995851815
3	27.564078300027177	stim	1		2	unambiguous	right	preferred	67.0		32.49627290002536	0.033636200008913875
3	27.59771450003609	stim	2		2	unambiguous	right	preferred	67.0		32.529909100034274	0.03370969998650253
3	27.631424200022593	stim	3		2	unambiguous	right	preferred	67.0		32.56361880002078	0.03396300005260855
3	27.6653872000752	stim	4		2	unambiguous	right	preferred	67.0		32.597581800073385	0.032213600003160536
3	27.697600800078362	stim	5		2	unambiguous	right	preferred	67.0		32.629795400076546	0.03326239995658398
3	27.730863200034946	stim	6		2	unambiguous	right	preferred	67.0		32.66305780003313	0.03372159996069968
3	27.764584799995646	stim	7		2	unambiguous	right	preferred	67.0		32.69677939999383	0.03356120001990348
3	27.79814600001555	stim	8		2	unambiguous	right	preferred	67.0		32.73034060001373	0.03311109996866435
3	27.831257099984214	stim	9		2	unambiguous	right	preferred	67.0		32.7634516999824	0.03361789998598397
3	27.864874999970198	stim	10		2	unambiguous	right	preferred	67.0		32.79706959996838	0.03303680010139942
3	27.897911800071597	stim	11		2	unambiguous	right	preferred	67.0		32.83010640006978	0.033326399978250265
3	27.931238200049847	stim	12		2	unambiguous	right	preferred	67.0		32.86343280004803	0.033323299954645336
3	27.964561500004493	stim	13		2	unambiguous	right	preferred	67.0		32.896756100002676	0.03340299997944385
3	27.997964499983937	stim	14		2	unambiguous	right	preferred	67.0		32.93015909998212	0.03333750006277114
3	28.031302000046708	stim	15		2	unambiguous	right	preferred	67.0		32.96349660004489	0.03330330003518611
3	28.064605300081894	stim	16		2	unambiguous	right	preferred	67.0		32.99679990008008	0.03351469989866018
3	28.098119999980554	stim	17		2	unambiguous	right	preferred	67.0		33.03031459997874	0.03336560004390776
3	28.13148560002446	stim	18		2	unambiguous	right	preferred	67.0		33.063680200022645	0.03329870000015944
3	28.16478430002462	stim	19		2	unambiguous	right	preferred	67.0		33.096978900022805	0.03366760001517832
3	28.1984519000398	stim	20		2	unambiguous	right	preferred	67.0		33.13064650003798	0.03343209996819496
3	28.231884000007994	stim	21		2	unambiguous	right	preferred	67.0		33.16407860000618	0.03365350002422929
3	28.265537500032224	stim	22		2	unambiguous	right	preferred	67.0		33.19773210003041	0.03355399996507913
3	28.299091499997303	stim	23		2	unambiguous	right	preferred	67.0		33.231286099995486	0.03364290005993098
3	28.332734400057234	stim	24		2	unambiguous	right	preferred	67.0		33.26492900005542	0.03327559994067997
3	28.366009999997914	stim	25		2	unambiguous	right	preferred	67.0		33.2982045999961	0.03340920002665371
3	28.399419200024568	stim	26		2	unambiguous	right	preferred	67.0		33.33161380002275	0.03366169997025281
3	28.43308089999482	stim	27		2	unambiguous	right	preferred	67.0		33.365275499993004	0.03352890000678599
3	28.466609800001606	stim	28		2	unambiguous	right	preferred	67.0		33.39880439999979	0.03314379998482764
3	28.499753599986434	stim	29		2	unambiguous	right	preferred	67.0		33.43194819998462	0.03360600001178682
3	28.53335959999822	stim	30		2	unambiguous	right	preferred	67.0		33.465554199996404	0.03330210002604872
3	28.56666170002427	stim	31		2	unambiguous	right	preferred	67.0		33.49885630002245	0.03338649997022003
3	28.60004819999449	stim	32		2	unambiguous	right	preferred	67.0		33.53224279999267	0.033557499991729856
3	28.63360569998622	stim	33		2	unambiguous	right	preferred	67.0		33.5658002999844	0.03353900008369237
3	28.667144700069912	stim	34		2	unambiguous	right	preferred	67.0		33.599339300068095	0.03328569990117103
3	28.700430399971083	stim	35		2	unambiguous	right	preferred	67.0		33.632624999969266	0.033845300087705255
3	28.734275700058788	stim	36		2	unambiguous	right	preferred	67.0		33.66647030005697	0.03385879995767027
3	28.76813450001646	stim	37		2	unambiguous	right	preferred	67.0		33.70032910001464	0.03334229998290539
3	28.801476799999364	stim	38		2	unambiguous	right	preferred	67.0		33.73367139999755	0.03363109997007996
3	28.835107899969444	stim	39		2	unambiguous	right	preferred	67.0		33.76730249996763	0.033168000052683055
3	28.868275900022127	stim	40		2	unambiguous	right	preferred	67.0		33.80047050002031	0.03318949998356402
3	28.90146540000569	stim	41		2	unambiguous	right	preferred	67.0		33.833660000003874	0.03354840003885329
3	28.935013800044544	stim	42		2	unambiguous	right	preferred	67.0		33.86720840004273	0.03376020002178848
3	28.968774000066333	stim	43		2	unambiguous	right	preferred	67.0		33.900968600064516	0.033930799923837185
3	29.00270479999017	stim	44		2	unambiguous	right	preferred	67.0		33.93489939998835	0.033770799986086786
3	29.036475599976256	stim	45		2	unambiguous	right	preferred	67.0		33.96867019997444	0.03315290005411953
3	29.069628500030376	stim	46		2	unambiguous	right	preferred	67.0		34.00182310002856	0.03384899999946356
3	29.10347750002984	stim	47		2	unambiguous	right	preferred	67.0		34.03567210002802	0.034012199961580336
3	29.13748969999142	stim	48		2	unambiguous	right	preferred	67.0		34.0696842999896	0.03387570008635521
3	29.171365400077775	stim	49		2	unambiguous	right	preferred	67.0		34.10356000007596	0.033951499965041876
3	29.205316900042817	stim	50		2	unambiguous	right	preferred	67.0		34.137511500041	0.03365849994588643
3	29.238975399988703	stim	51		2	unambiguous	right	preferred	67.0		34.17116999998689	0.033685100032016635
3	29.27266050002072	stim	52		2	unambiguous	right	preferred	67.0		34.204855100018904	0.033634799998253584
3	29.306295300018974	stim	53		2	unambiguous	right	preferred	67.0		34.23848990001716	0.03335100004915148
3	29.339646300068125	stim	54		2	unambiguous	right	preferred	67.0		34.27184090006631	0.033283299999311566
3	29.372929600067437	stim	55		2	unambiguous	right	preferred	67.0		34.30512420006562	0.0340804000152275
3	29.407010000082664	stim	56		2	unambiguous	right	preferred	67.0		34.33920460008085	0.03347479994408786
3	29.440484800026752	stim	57		2	unambiguous	right	preferred	67.0		34.372679400024936	0.033468600013293326
3	29.473953400040045	stim	58		2	unambiguous	right	preferred	67.0		34.40614800003823	0.03343850001692772
3	29.507391900056973	stim	59		2	unambiguous	right	preferred	67.0		34.43958650005516	0.03338229993823916
3	29.540774199995212	stim	60		2	unambiguous	right	preferred	67.0		34.472968799993396	0.03344600007403642
3	29.57422020006925	stim	61		2	unambiguous	right	preferred	67.0		34.50641480006743	0.03371869993861765
3	29.607938900007866	stim	62		2	unambiguous	right	preferred	67.0		34.54013350000605	0.033147000009194016
3	29.64108590001706	stim	63		2	unambiguous	right	preferred	67.0		34.573280500015244	0.033502900041639805
3	29.6745888000587	stim	64		2	unambiguous	right	preferred	67.0		34.606783400056884	0.03347189992200583
3	29.708060699980706	stim	65		2	unambiguous	right	preferred	67.0		34.64025529997889	0.03338260005693883
3	29.741443300037645	stim	66		2	unambiguous	right	preferred	67.0		34.67363790003583	0.03379360004328191
4	29.775236900080927	stim	0		2	unambiguous	left	preferred	69.0		34.70743150007911	0.033421300002373755
4	29.8086582000833	stim	1		2	unambiguous	left	preferred	69.0		34.740852800081484	0.03322299988940358
4	29.841881199972704	stim	2		2	unambiguous	left	preferred	69.0		34.77407579997089	0.03341680008452386
4	29.875298000057228	stim	3		2	unambiguous	left	preferred	69.0		34.80749260005541	0.03330829995684326
4	29.90860630001407	stim	4		2	unambiguous	left	preferred	69.0		34.840800900012255	0.0335468000266701
4	29.94215310004074	stim	5		2	unambiguous	left	preferred	69.0		34.874347700038925	0.03329139994457364
4	29.975444499985315	stim	6		2	unambiguous	left	preferred	69.0		34.9076390999835	0.03357309999410063
4	30.009017599979416	stim	7		2	unambiguous	left	preferred	69.0		34.9412121999776	0.0335272999946028
4	30.04254489997402	stim	8		2	unambiguous	left	preferred	69.0		34.9747394999722	0.03339060000143945
4	30.075935499975458	stim	9		2	unambiguous	left	preferred	69.0		35.00813009997364	0.03344850009307265
4	30.10938400006853	stim	10		2	unambiguous	left	preferred	69.0		35.041578600066714	0.033465799991972744
4	30.142849800060503	stim	11		2	unambiguous	left	preferred	69.0		35.07504440005869	0.03338969999458641
4	30.17623950005509	stim	12		2	unambiguous	left	preferred	69.0		35.10843410005327	0.03331859991885722
4	30.209558099973947	stim	13		2	unambiguous	left	preferred	69.0		35.14175269997213	0.033729400020092726
4	30.24328749999404	stim	14		2	unambiguous	left	preferred	69.0		35.17548209999222	0.033171100076287985
4	30.276458600070328	stim	15		2	unambiguous	left	preferred	69.0		35.20865320006851	0.033551499946042895
4	30.31001010001637	stim	16		2	unambiguous	left	preferred	69.0		35.242204700014554	0.033526599989272654
4	30.343536700005643	stim	17		2	unambiguous	left	preferred	69.0		35.27573130000383	0.033249499974772334
4	30.376786199980415	stim	18		2	unambiguous	left	preferred	69.0		35.3089807999786	0.0335270999930799
4	30.410313299973495	stim	19		2	unambiguous	left	preferred	69.0		35.34250789997168	0.033379800035618246
4	30.443693100009114	stim	20		2	unambiguous	left	preferred	69.0		35.3758877000073	0.033551800064742565
4	30.477244900073856	stim	21		2	unambiguous	left	preferred	69.0		35.40943950007204	0.0338114999467507
4	30.511056400020607	stim	22		2	unambiguous	left	preferred	69.0		35.44325100001879	0.03557960002217442
4	30.54663600004278	stim	23		2	unambiguous	left	preferred	69.0		35.478830600040965	0.033357599982991815
4	30.579993600025773	stim	24		2	unambiguous	left	preferred	69.0		35.51218820002396	0.033471600036136806
4	30.61346520006191	stim	25		2	unambiguous	left	preferred	69.0		35.54565980006009	0.03332279995083809
4	30.646788000012748	stim	26		2	unambiguous	left	preferred	69.0		35.57898260001093	0.03340860002208501
4	30.680196600034833	stim	27		2	unambiguous	left	preferred	69.0		35.61239120003302	0.03332149994093925
4	30.713518099975772	stim	28		2	unambiguous	left	preferred	69.0		35.645712699973956	0.03329660010058433
4	30.746814700076357	stim	29		2	unambiguous	left	preferred	69.0		35.67900930007454	0.03339999995660037
4	30.780214700032957	stim	30		2	unambiguous	left	preferred	69.0		35.71240930003114	0.03333570004906505
4	30.813550400082022	stim	31		2	unambiguous	left	preferred	69.0		35.745745000080206	0.03341479995287955
4	30.8469652000349	stim	32		2	unambiguous	left	preferred	69.0		35.779159800033085	0.033313299994915724
4	30.880278500029817	stim	33		2	unambiguous	left	preferred	69.0		35.812473100028	0.03314650000538677
4	30.913425000035204	stim	34		2	unambiguous	left	preferred	69.0		35.84561960003339	0.03331550001166761
4	30.94674050004687	stim	35		2	unambiguous	left	preferred	69.0		35.878935100045055	0.03332539997063577
4	30.980065900017507	stim	36		2	unambiguous	left	preferred	69.0		35.91226050001569	0.03341619996353984
4	31.013482099981047	stim	37		2	unambiguous	left	preferred	69.0		35.94567669997923	0.0334179000928998
4	31.046900000073947	stim	38		2	unambiguous	left	preferred	69.0		35.97909460007213	0.03326799999922514
4	31.080168000073172	stim	39		2	unambiguous	left	preferred	69.0		36.012362600071356	0.03362319990992546
4	31.113791199983098	stim	40		2	unambiguous	left	preferred	69.0		36.04598579998128	0.03331130009610206
4	31.1471025000792	stim	41		2	unambiguous	left	preferred	69.0		36.07929710007738	0.03315399994608015
4	31.18025650002528	stim	42		2	unambiguous	left	preferred	69.0		36.11245110002346	0.03425360005348921
4	31.21451010007877	stim	43		2	unambiguous	left	preferred	69.0		36.14670470007695	0.0338236999232322
4	31.248333800002	stim	44		2	unambiguous	left	preferred	69.0		36.180528400000185	0.03355529997497797
4	31.28188909997698	stim	45		2	unambiguous	left	preferred	69.0		36.21408369997516	0.033579700044356287
4	31.315468800021335	stim	46		2	unambiguous	left	preferred	69.0		36.24766340001952	0.033839400042779744
4	31.349308200064115	stim	47		2	unambiguous	left	preferred	69.0		36.2815028000623	0.03353449993301183
4	31.382842699997127	stim	48		2	unambiguous	left	preferred	69.0		36.31503729999531	0.03342019999399781
4	31.416262899991125	stim	49		2	unambiguous	left	preferred	69.0		36.34845749998931	0.033502700040116906
4	31.44976560003124	stim	50		2	unambiguous	left	preferred	69.0		36.381960200029425	0.03318020002916455
4	31.482945800060406	stim	51		2	unambiguous	left	preferred	69.0		36.41514040005859	0.03374179999809712
4	31.516687600058503	stim	52		2	unambiguous	left	preferred	69.0		36.44888220005669	0.03372099995613098
4	31.550408600014634	stim	53		2	unambiguous	left	preferred	69.0		36.48260320001282	0.03385140001773834
4	31.584260000032373	stim	54		2	unambiguous	left	preferred	69.0		36.516454600030556	0.03335839998908341
4	31.617618400021456	stim	55		2	unambiguous	left	preferred	69.0		36.54981300001964	0.033990500029176474
4	31.651608900050633	stim	56		2	unambiguous	left	preferred	69.0		36.583803500048816	0.03347269992809743
4	31.68508159997873	stim	57		2	unambiguous	left	preferred	69.0		36.617276199976914	0.033924999996088445
4	31.71900659997482	stim	58		2	unambiguous	left	preferred	69.0		36.651201199973	0.03331270010676235
4	31.75231930008158	stim	59		2	unambiguous	left	preferred	69.0		36.684513900079764	0.03335559996776283
4	31.785674900049344	stim	60		2	unambiguous	left	preferred	69.0		36.71786950004753	0.03374630003236234
4	31.819421200081706	stim	61		2	unambiguous	left	preferred	69.0		36.75161580007989	0.03328539989888668
4	31.852706599980593	stim	62		2	unambiguous	left	preferred	69.0		36.784901199978776	0.03327290003653616
4	31.88597950001713	stim	63		2	unambiguous	left	preferred	69.0		36.81817410001531	0.033677499974146485
4	31.919656999991275	stim	64		2	unambiguous	left	preferred	69.0		36.85185159998946	0.03388610004913062
4	31.953543100040406	stim	65		2	unambiguous	left	preferred	69.0		36.88573770003859	0.03393269993830472
4	31.98747579997871	stim	66		2	unambiguous	left	preferred	69.0		36.919670399976894	0.03373470006044954
4	32.02121050003916	stim	67		2	unambiguous	left	preferred	69.0		36.953405100037344	0.03347230004146695
4	32.05468280008063	stim	68		2	unambiguous	left	preferred	69.0		36.98687740007881	0.03333909995853901
5	32.088021900039166	stim	0		2	unambiguous	right	preferred	67.0		37.02021650003735	0.0337139000184834
5	32.12173580005765	stim	1		2	unambiguous	right	preferred	67.0		37.05393040005583	0.033316300017759204
5	32.15505210007541	stim	2		2	unambiguous	right	preferred	67.0		37.08724670007359	0.03375949990004301
5	32.18881159997545	stim	3		2	unambiguous	right	preferred	67.0		37.121006199973635	0.0339204000774771
5	32.22273200005293	stim	4		2	unambiguous	right	preferred	67.0		37.15492660005111	0.033418299979530275
5	32.25615030003246	stim	5		2	unambiguous	right	preferred	67.0		37.18834490003064	0.03376310004387051
5	32.28991340007633	stim	6		2	unambiguous	right	preferred	67.0		37.22210800007451	0.03394799993839115
5	32.32386140001472	stim	7		2	unambiguous	right	preferred	67.0		37.256056000012904	0.03394560003653169
5	32.35780700005125	stim	8		2	unambiguous	right	preferred	67.0		37.290001600049436	0.03322879993356764
5	32.39103579998482	stim	9		2	unambiguous	right	preferred	67.0		37.323230399983004	0.033695499994792044
5	32.42473129997961	stim	10		2	unambiguous	right	preferred	67.0		37.356925899977796	0.03306540008634329
5	32.457796700065956	stim	11		2	unambiguous	right	preferred	67.0		37.38999130006414	0.03341639996506274
5	32.49121310003102	stim	12		2	unambiguous	right	preferred	67.0		37.4234077000292	0.03384149994235486
5	32.52505459997337	stim	13		2	unambiguous	right	preferred	67.0		37.45724919997156	0.03388390003237873
5	32.55893850000575	stim	14		2	unambiguous	right	preferred	67.0		37.491133100003935	0.03370350005570799
5	32.59264200006146	stim	15		2	unambiguous	right	preferred	67.0		37.52483660005964	0.03351689991541207
5	32.62615889997687	stim	16		2	unambiguous	right	preferred	67.0		37.558353499975055	0.0333484000293538
5	32.659507300006226	stim	17		2	unambiguous	right	preferred	67.0		37.59170190000441	0.033428800059482455
5	32.69293610006571	stim	18		2	unambiguous	right	preferred	67.0		37.62513070006389	0.033446499961428344
5	32.72638260002714	stim	19		2	unambiguous	right	preferred	67.0		37.65857720002532	0.03348770004231483
5	32.75987030006945	stim	20		2	unambiguous	right	preferred	67.0		37.692064900067635	0.033394299913197756
5	32.79326459998265	stim	21		2	unambiguous	right	preferred	67.0		37.72545919998083	0.033483700011856854
5	32.826748299994506	stim	22		2	unambiguous	right	preferred	67.0		37.75894289999269	0.033246400067582726
5	32.85999470006209	stim	23		2	unambiguous	right	preferred	67.0		37.79218930006027	0.0332975999917835
5	32.89329230005387	stim	24		2	unambiguous	right	preferred	67.0		37.825486900052056	0.03333050000946969
5	32.92662280006334	stim	25		2	unambiguous	right	preferred	67.0		37.858817400061525	0.03337929991539568
5	32.96000209997874	stim	26		2	unambiguous	right	preferred	67.0		37.89219669997692	0.033344199997372925
5	32.99334629997611	stim	27		2	unambiguous	right	preferred	67.0		37.925540899974294	0.03335270006209612
5	33.02669900003821	stim	28		2	unambiguous	right	preferred	67.0		37.95889360003639	0.03369599999859929
5	33.060395000036806	stim	29		2	unambiguous	right	preferred	67.0		37.99258960003499	0.033237700001336634
5	33.09363270003814	stim	30		2	unambiguous	right	preferred	67.0		38.025827300036326	0.033516100025735795
5	33.12714880006388	stim	31		2	unambiguous	right	preferred	67.0		38.05934340006206	0.03348979994188994
5	33.16063860000577	stim	32		2	unambiguous	right	preferred	67.0		38.09283320000395	0.03344240004662424
5	33.19408100005239	stim	33		2	unambiguous	right	preferred	67.0		38.126275600050576	0.033444699947722256
5	33.227525700000115	stim	34		2	unambiguous	right	preferred	67.0		38.1597202999983	0.03382800007238984
5	33.261353700072505	stim	35		2	unambiguous	right	preferred	67.0		38.19354830007069	0.03295929997693747
5	33.29431300004944	stim	36		2	unambiguous	right	preferred	67.0		38.226507600047626	0.03362320002634078
5	33.32793620007578	stim	37		2	unambiguous	right	preferred	67.0		38.260130800073966	0.03530899994075298
5	33.363245200016536	stim	38		2	unambiguous	right	preferred	67.0		38.29543980001472	0.033468600013293326
5	33.39671380002983	stim	39		2	unambiguous	right	preferred	67.0		38.32890840002801	0.033498500008136034
5	33.430212300037965	stim	40		2	unambiguous	right	preferred	67.0		38.36240690003615	0.03312289994210005
5	33.463335199980065	stim	41		2	unambiguous	right	preferred	67.0		38.39552979997825	0.033427100046537817
5	33.4967623000266	stim	42		2	unambiguous	right	preferred	67.0		38.42895690002479	0.034280700027011335
5	33.531043000053614	stim	43		2	unambiguous	right	preferred	67.0		38.4632376000518	0.032286499976180494
5	33.563329500029795	stim	44		2	unambiguous	right	preferred	67.0		38.49552410002798	0.033293799962848425
5	33.59662329999264	stim	45		2	unambiguous	right	preferred	67.0		38.52881789999083	0.033425600035116076
5	33.63004890002776	stim	46		2	unambiguous	right	preferred	67.0		38.56224350002594	0.03328550001606345
5	33.66333440004382	stim	47		2	unambiguous	right	preferred	67.0		38.595529000042006	0.03345670003909618
5	33.69679110008292	stim	48		2	unambiguous	right	preferred	67.0		38.6289857000811	0.033238899894058704
5	33.73002999997698	stim	49		2	unambiguous	right	preferred	67.0		38.66222459997516	0.033317700028419495
5	33.7633477000054	stim	50		2	unambiguous	right	preferred	67.0		38.69554230000358	0.03367250005248934
5	33.79702020005789	stim	51		2	unambiguous	right	preferred	67.0		38.72921480005607	0.03338659997098148
5	33.83040680002887	stim	52		2	unambiguous	right	preferred	67.0		38.76260140002705	0.033997399965301156
5	33.86440419999417	stim	53		2	unambiguous	right	preferred	67.0		38.79659879999235	0.03314950002823025
5	33.8975537000224	stim	54		2	unambiguous	right	preferred	67.0		38.82974830002058	0.033400399959646165
5	33.930954099982046	stim	55		2	unambiguous	right	preferred	67.0		38.86314869998023	0.03332130005583167
5	33.96427540003788	stim	56		2	unambiguous	right	preferred	67.0		38.89647000003606	0.03329329995904118
5	33.99756869999692	stim	57		2	unambiguous	right	preferred	67.0		38.9297632999951	0.03330380003899336
5	34.03087250003591	stim	58		2	unambiguous	right	preferred	67.0		38.963067100034095	0.033462699968367815
5	34.06433520000428	stim	59		2	unambiguous	right	preferred	67.0		38.99652980000246	0.03319700004067272
5	34.09753220004495	stim	60		2	unambiguous	right	preferred	67.0		39.029726800043136	0.033429999952204525
5	34.13096219999716	stim	61		2	unambiguous	right	preferred	67.0		39.06315679999534	0.033298499998636544
5	34.16426069999579	stim	62		2	unambiguous	right	preferred	67.0		39.09645529999398	0.033312899991869926
5	34.19757359998766	stim	63		2	unambiguous	right	preferred	67.0		39.12976819998585	0.033676300081424415
5	34.23124990006909	stim	64		2	unambiguous	right	preferred	67.0		39.16344450006727	0.03376409993506968
5	34.26501400000416	stim	65		2	unambiguous	right	preferred	67.0		39.19720860000234	0.03321470005903393
5	34.29822870006319	stim	66		2	unambiguous	right	preferred	67.0		39.230423300061375	0.03332589997444302
6	34.331554600037634	stim	0		2	unambiguous	left	preferred	69.0		39.26374920003582	0.03335369995329529
6	34.36490829999093	stim	1		2	unambiguous	left	preferred	69.0		39.29710289998911	0.03330060001462698
6	34.39820890000556	stim	2		2	unambiguous	left	preferred	69.0		39.33040350000374	0.03363690001424402
6	34.4318458000198	stim	3		2	unambiguous	left	preferred	69.0		39.364040400017984	0.03357129998039454
6	34.465417100000195	stim	4		2	unambiguous	left	preferred	69.0		39.39761169999838	0.03358120005577803
6	34.49899830005597	stim	5		2	unambiguous	left	preferred	69.0		39.43119290005416	0.03333270002622157
6	34.532331000082195	stim	6		2	unambiguous	left	preferred	69.0		39.46452560008038	0.033868499915115535
6	34.56619949999731	stim	7		2	unambiguous	left	preferred	69.0		39.498394099995494	0.03360259998589754
6	34.59980209998321	stim	8		2	unambiguous	left	preferred	69.0		39.53199669998139	0.0334098000312224
6	34.63321190001443	stim	9		2	unambiguous	left	preferred	69.0		39.565406500012614	0.03396030003204942
6	34.66717220004648	stim	10		2	unambiguous	left	preferred	69.0		39.59936680004466	0.033185399952344596
6	34.700357599998824	stim	11		2	unambiguous	left	preferred	69.0		39.63255219999701	0.033656800049357116
6	34.73401440004818	stim	12		2	unambiguous	left	preferred	69.0		39.666209000046365	0.03372109995689243
6	34.767735500005074	stim	13		2	unambiguous	left	preferred	69.0		39.69993010000326	0.033924899995326996
6	34.8016604000004	stim	14		2	unambiguous	left	preferred	69.0		39.733854999998584	0.0339196000713855
6	34.835580000071786	stim	15		2	unambiguous	left	preferred	69.0		39.76777460006997	0.033782899961806834
6	34.86936290003359	stim	16		2	unambiguous	left	preferred	69.0		39.80155750003178	0.03359130001626909
6	34.90295420004986	stim	17		2	unambiguous	left	preferred	69.0		39.835148800048046	0.033928100019693375
6	34.936882300069556	stim	18		2	unambiguous	left	preferred	69.0		39.86907690006774	0.03334959992207587
6	34.97023189999163	stim	19		2	unambiguous	left	preferred	69.0		39.902426499989815	0.03350620006676763
6	35.0037381000584	stim	20		2	unambiguous	left	preferred	69.0		39.93593270005658	0.03418029996100813
6	35.03791840001941	stim	21		2	unambiguous	left	preferred	69.0		39.97011300001759	0.033207900007255375
6	35.07112630002666	stim	22		2	unambiguous	left	preferred	69.0		40.003320900024846	0.033921999973244965
6	35.10504829999991	stim	23		2	unambiguous	left	preferred	69.0		40.03724289999809	0.033932600053958595
6	35.138980900053866	stim	24		2	unambiguous	left	preferred	69.0		40.07117550005205	0.03363989992067218
6	35.17262079997454	stim	25		2	unambiguous	left	preferred	69.0		40.10481539997272	0.0337330000475049
6	35.20635380002204	stim	26		2	unambiguous	left	preferred	69.0		40.13854840002023	0.03369199996814132
6	35.240045799990185	stim	27		2	unambiguous	left	preferred	69.0		40.17224039998837	0.033493900089524686
6	35.27353970007971	stim	28		2	unambiguous	left	preferred	69.0		40.20573430007789	0.03356139990501106
6	35.30710109998472	stim	29		2	unambiguous	left	preferred	69.0		40.239295699982904	0.03350100002717227
6	35.34060210001189	stim	30		2	unambiguous	left	preferred	69.0		40.272796700010076	0.033259800053201616
6	35.373861900065094	stim	31		2	unambiguous	left	preferred	69.0		40.30605650006328	0.03338909999001771
6	35.40725100005511	stim	32		2	unambiguous	left	preferred	69.0		40.339445600053295	0.03386800002772361
6	35.441119000082836	stim	33		2	unambiguous	left	preferred	69.0		40.37331360008102	0.049807599978521466
6	35.49092660006136	stim	34		2	unambiguous	left	preferred	69.0		40.42312120005954	0.03333459992427379
6	35.52426119998563	stim	35		2	unambiguous	left	preferred	69.0		40.456455799983814	0.03342039999552071
6	35.55768159998115	stim	36		2	unambiguous	left	preferred	69.0		40.489876199979335	0.033440400031395257
6	35.59112200001255	stim	37		2	unambiguous	left	preferred	69.0		40.52331660001073	0.03373430005740374
6	35.62485630006995	stim	38		2	unambiguous	left	preferred	69.0		40.557050900068134	0.03309569996781647
6	35.65795200003777	stim	39		2	unambiguous	left	preferred	69.0		40.59014660003595	0.033542599994689226
6	35.691494600032456	stim	40		2	unambiguous	left	preferred	69.0		40.62368920003064	0.033185499953106046
6	35.72468009998556	stim	41		2	unambiguous	left	preferred	69.0		40.656874699983746	0.03406500001437962
6	35.75874509999994	stim	42		2	unambiguous	left	preferred	69.0		40.690939699998125	0.03316440002527088
6	35.79190950002521	stim	43		2	unambiguous	left	preferred	69.0		40.724104100023396	0.03355000005103648
6	35.82545950007625	stim	44		2	unambiguous	left	preferred	69.0		40.75765410007443	0.03386669990140945
6	35.85932619997766	stim	45		2	unambiguous	left	preferred	69.0		40.79152079997584	0.05015410005580634
6	35.909480300033465	stim	46		2	unambiguous	left	preferred	69.0		40.84167490003165	0.03336470003705472
6	35.94284500007052	stim	47		2	unambiguous	left	preferred	69.0		40.8750396000687	0.033394199912436306
6	35.976239199982956	stim	48		2	unambiguous	left	preferred	69.0		40.90843379998114	0.033336800057440996
6	36.0095760000404	stim	49		2	unambiguous	left	preferred	69.0		40.94177060003858	0.03368829993996769
6	36.043264299980365	stim	50		2	unambiguous	left	preferred	69.0		40.97545889997855	0.0331878000870347
6	36.0764521000674	stim	51		2	unambiguous	left	preferred	69.0		41.00864670006558	0.033535199938341975
6	36.10998730000574	stim	52		2	unambiguous	left	preferred	69.0		41.042181900003925	0.03340529999695718
6	36.1433926000027	stim	53		2	unambiguous	left	preferred	69.0		41.07558720000088	0.033460000064224005
6	36.17685260006692	stim	54		2	unambiguous	left	preferred	69.0		41.109047200065106	0.033471299917437136
6	36.21032389998436	stim	55		2	unambiguous	left	preferred	69.0		41.14251849998254	0.03345510002691299
6	36.24377900001127	stim	56		2	unambiguous	left	preferred	69.0		41.175973600009456	0.03350969997700304
6	36.277288699988276	stim	57		2	unambiguous	left	preferred	69.0		41.20948329998646	0.03328830003738403
6	36.31057700002566	stim	58		2	unambiguous	left	preferred	69.0		41.24277160002384	0.03358769998885691
6	36.34416470001452	stim	59		2	unambiguous	left	preferred	69.0		41.2763593000127	0.03337459999602288
6	36.37753930001054	stim	60		2	unambiguous	left	preferred	69.0		41.30973390000872	0.03340570000000298
