trial_nr	onset	event_type	phase	response	nr_frames	block_type	trial_type	response_hand	phase_length	last_frame	key_duration	onset_abs	duration
0	0.03489449992775917	stim	0		0	break	break	preferred	1.0	0.0		4.375125899910927	2.781907399999909
0	2.8168018999276683	break	0	space	0	break	break	preferred	1.0	0.0	0.11084069998469204	7.157033299910836	0.29308520001359284
0	3.109887099941261	break	0	space	599	break	break	preferred	1.0	0.0	0.09508960007224232	7.450118499924429	7.042953000054695
1	10.152840099995956	stim	0		2	unambiguous	right	preferred	70.0	0.0		14.493071499979123	0.03356130002066493
1	10.18640140001662	stim	1		2	unambiguous	right	preferred	70.0	0.0		14.526632799999788	0.03310040000360459
1	10.219501800020225	stim	2		2	unambiguous	right	preferred	70.0	0.0		14.559733200003393	0.033784199971705675
1	10.253285999991931	stim	3		2	unambiguous	right	preferred	70.0	0.0		14.593517399975099	0.0330054999794811
1	10.286291499971412	stim	4		2	unambiguous	right	preferred	70.0	0.0		14.62652289995458	0.033434699987992644
1	10.319726199959405	stim	5		2	unambiguous	right	preferred	70.0	0.0		14.659957599942572	0.033280599978752434
1	10.353006799938157	stim	6		2	unambiguous	right	preferred	70.0	0.0		14.693238199921325	0.03329050005413592
1	10.386297299992293	stim	7		2	unambiguous	right	preferred	70.0	0.0		14.72652869997546	0.03328400000464171
1	10.419581299996935	stim	8		2	unambiguous	right	preferred	70.0	0.0		14.759812699980102	0.03374179999809712
1	10.453323099995032	stim	9		2	unambiguous	right	preferred	70.0	0.0		14.7935544999782	0.03329629998188466
1	10.486619399976917	stim	10		2	unambiguous	right	preferred	70.0	0.0		14.826850799960084	0.03319530002772808
1	10.519814700004645	stim	11		2	unambiguous	right	preferred	70.0	0.0		14.860046099987812	0.03347419993951917
1	10.553288899944164	stim	12		2	unambiguous	right	preferred	70.0	0.0		14.893520299927332	0.033313099993392825
1	10.586601999937557	stim	13		2	unambiguous	right	preferred	70.0	0.0		14.926833399920724	0.03327540005557239
1	10.619877399993129	stim	14		2	unambiguous	right	preferred	70.0	0.0		14.960108799976297	0.033588799997232854
1	10.653466199990362	stim	15		2	unambiguous	right	preferred	70.0	0.0		14.99369759997353	0.03377159999217838
1	10.68723779998254	stim	16		2	unambiguous	right	preferred	70.0	0.0		15.027469199965708	0.032751700025983155
1	10.719989500008523	stim	17		2	unambiguous	right	preferred	70.0	0.0		15.060220899991691	0.033465899992734194
1	10.753455400001258	stim	18		2	unambiguous	right	preferred	70.0	0.0		15.093686799984425	0.033232899964787066
1	10.786688299966045	stim	19		2	unambiguous	right	preferred	70.0	0.0		15.126919699949212	0.03357470000628382
1	10.820262999972329	stim	20		2	unambiguous	right	preferred	70.0	0.0		15.160494399955496	0.033243400044739246
1	10.853506400017068	stim	21		2	unambiguous	right	preferred	70.0	0.0		15.193737800000235	0.033870199928060174
1	10.887376599945128	stim	22		2	unambiguous	right	preferred	70.0	0.0		15.227607999928296	0.03298850008286536
1	10.920365100027993	stim	23		2	unambiguous	right	preferred	70.0	0.0		15.260596500011161	0.033210599911399186
1	10.953575699939393	stim	24		2	unambiguous	right	preferred	70.0	0.0		15.29380709992256	0.03338560007978231
1	10.986961300019175	stim	25		2	unambiguous	right	preferred	70.0	0.0		15.327192700002342	0.0332902999361977
1	11.020251599955373	stim	26		2	unambiguous	right	preferred	70.0	0.0		15.36048299993854	0.03329300007317215
1	11.053544600028545	stim	27		2	unambiguous	right	preferred	70.0	0.0		15.393776000011712	0.0345507999882102
1	11.088095400016755	stim	28		2	unambiguous	right	preferred	70.0	0.0		15.428326799999923	0.033181299921125174
1	11.12127669993788	stim	29		2	unambiguous	right	preferred	70.0	0.0		15.461508099921048	0.03334349999204278
1	11.154620199929923	stim	30		2	unambiguous	right	preferred	70.0	0.0		15.49485159991309	0.033534100046381354
1	11.188154299976304	stim	31		2	unambiguous	right	preferred	70.0	0.0		15.528385699959472	0.033705799956806004
1	11.22186009993311	stim	32		2	unambiguous	right	preferred	70.0	0.0		15.562091499916278	0.03322040010243654
1	11.255080500035547	stim	33		2	unambiguous	right	preferred	70.0	0.0		15.595311900018714	0.03391389991156757
1	11.288994399947114	stim	34		2	unambiguous	right	preferred	70.0	0.0		15.629225799930282	0.033092300058342516
1	11.322086700005457	stim	35		2	unambiguous	right	preferred	70.0	0.0		15.662318099988624	0.03332409996073693
1	11.355410799966194	stim	36		2	unambiguous	right	preferred	70.0	0.0		15.695642199949361	0.03330160002224147
1	11.388712399988435	stim	37		2	unambiguous	right	preferred	70.0	0.0		15.728943799971603	0.03334640001412481
1	11.42205880000256	stim	38		2	unambiguous	right	preferred	70.0	0.0		15.762290199985728	0.033293999964371324
1	11.455352799966931	stim	39		2	unambiguous	right	preferred	70.0	0.0		15.795584199950099	0.03353800007607788
1	11.48889080004301	stim	40		2	unambiguous	right	preferred	70.0	0.0		15.829122200026177	0.0338112999452278
1	11.522702099988237	stim	41		2	unambiguous	right	preferred	70.0	0.0		15.862933499971405	0.03294669999741018
1	11.555648799985647	stim	42		2	unambiguous	right	preferred	70.0	0.0		15.895880199968815	0.033261299948208034
1	11.588910099933855	stim	43		2	unambiguous	right	preferred	70.0	0.0		15.929141499917023	0.03337730001658201
1	11.622287399950437	stim	44		2	unambiguous	right	preferred	70.0	0.0		15.962518799933605	0.03332719998434186
1	11.655614599934779	stim	45		2	unambiguous	right	preferred	70.0	0.0		15.995845999917947	0.03342520003207028
1	11.68903979996685	stim	46		2	unambiguous	right	preferred	70.0	0.0		16.029271199950017	0.03391870006453246
1	11.722958500031382	stim	47		2	unambiguous	right	preferred	70.0	0.0		16.06318990001455	0.03288819990120828
1	11.75584669993259	stim	48		2	unambiguous	right	preferred	70.0	0.0		16.096078099915758	0.03365600004326552
1	11.789502699975856	stim	49		2	unambiguous	right	preferred	70.0	0.0		16.129734099959023	0.03389810002408922
1	11.823400799999945	stim	50		2	unambiguous	right	preferred	70.0	0.0		16.163632199983113	0.03348590002860874
1	11.856886700028554	stim	51		2	unambiguous	right	preferred	70.0	0.0		16.19711810001172	0.033154499949887395
1	11.890041199978441	stim	52		2	unambiguous	right	preferred	70.0	0.0		16.23027259996161	0.03391410002950579
1	11.923955300007947	stim	53		2	unambiguous	right	preferred	70.0	0.0		16.264186699991114	0.034219900029711425
1	11.958175200037658	stim	54		2	unambiguous	right	preferred	70.0	0.0		16.298406600020826	0.03214149991981685
1	11.990316699957475	stim	55		2	unambiguous	right	preferred	70.0	0.0		16.330548099940643	0.033264399971812963
1	12.023581099929288	stim	56		2	unambiguous	right	preferred	70.0	0.0		16.363812499912456	0.03321760008111596
1	12.056798700010404	stim	57		2	unambiguous	right	preferred	70.0	0.0		16.39703009999357	0.03318619995843619
1	12.08998489996884	stim	58		2	unambiguous	right	preferred	70.0	0.0		16.430216299952008	0.0336901000700891
1	12.12367500003893	stim	59		2	unambiguous	right	preferred	70.0	0.0		16.463906400022097	0.0334577999310568
1	12.157132799969986	stim	60		2	unambiguous	right	preferred	70.0	0.0		16.497364199953154	0.03324749995954335
1	12.19038029992953	stim	61		2	unambiguous	right	preferred	70.0	0.0		16.530611699912697	0.03348860004916787
1	12.223868899978697	stim	62		2	unambiguous	right	preferred	70.0	0.0		16.564100299961865	0.03369129996281117
1	12.257560199941508	stim	63		2	unambiguous	right	preferred	70.0	0.0		16.597791599924676	0.033485100022517145
1	12.291045299964026	stim	64		2	unambiguous	right	preferred	70.0	0.0		16.631276699947193	0.034061299986205995
1	12.325106599950232	stim	65		2	unambiguous	right	preferred	70.0	0.0		16.6653379999334	0.036953500006347895
1	12.36206009995658	stim	66		2	unambiguous	right	preferred	70.0	0.0		16.702291499939747	0.03325350000523031
1	12.39531359996181	stim	67		2	unambiguous	right	preferred	70.0	0.0		16.735544999944977	0.03324160003103316
1	12.428555199992843	stim	68		2	unambiguous	right	preferred	70.0	0.0		16.76878659997601	0.03334079997148365
1	12.461895999964327	stim	69		2	unambiguous	right	preferred	70.0	0.0		16.802127399947494	0.033531200024299324
2	12.495427199988626	stim	0		2	unambiguous	left	preferred	69.0	70.0		16.835658599971794	0.03372459998354316
2	12.529151799972169	stim	1		2	unambiguous	left	preferred	69.0	70.0		16.869383199955337	0.03324879996944219
2	12.562400599941611	stim	2		2	unambiguous	left	preferred	69.0	70.0		16.90263199992478	0.0332240000134334
2	12.595624599955045	stim	3		2	unambiguous	left	preferred	69.0	70.0		16.935855999938212	0.033348600030876696
2	12.628973199985921	stim	4		2	unambiguous	left	preferred	69.0	70.0		16.96920459996909	0.033255300018936396
2	12.662228500004858	stim	5		2	unambiguous	left	preferred	69.0	70.0		17.002459899988025	0.03348109999205917
2	12.695709599996917	stim	6		2	unambiguous	left	preferred	69.0	70.0		17.035940999980085	0.033413799945265055
2	12.729123399942182	stim	7		2	unambiguous	left	preferred	69.0	70.0		17.06935479992535	0.03388990007806569
2	12.763013300020248	stim	8		2	unambiguous	left	preferred	69.0	70.0		17.103244700003415	0.03261839994229376
2	12.795631699962541	stim	9		2	unambiguous	left	preferred	69.0	70.0		17.13586309994571	0.03225140005815774
2	12.8278831000207	stim	10		2	unambiguous	left	preferred	69.0	70.0		17.168114500003867	0.03442339994944632
2	12.862306499970146	stim	11		2	unambiguous	left	preferred	69.0	70.0		17.202537899953313	0.03322850004769862
2	12.895535000017844	stim	12		2	unambiguous	left	preferred	69.0	70.0		17.235766400001012	0.033787399996072054
2	12.929322400013916	stim	13		2	unambiguous	left	preferred	69.0	70.0		17.269553799997084	0.03300229995511472
2	12.962324699969031	stim	14		2	unambiguous	left	preferred	69.0	70.0		17.3025560999522	0.03496439999435097
2	12.997289099963382	stim	15		2	unambiguous	left	preferred	69.0	70.0		17.33752049994655	0.031627100077457726
2	13.02891620004084	stim	16		2	unambiguous	left	preferred	69.0	70.0		17.369147600024007	0.033659599954262376
2	13.062575799995102	stim	17		2	unambiguous	left	preferred	69.0	70.0		17.40280719997827	0.049637499963864684
2	13.112213299958967	stim	18		2	unambiguous	left	preferred	69.0	70.0		17.452444699942134	0.032247900031507015
2	13.144461199990474	stim	19		2	unambiguous	left	preferred	69.0	70.0		17.48469259997364	0.05159129993990064
2	13.196052499930374	stim	20		2	unambiguous	left	preferred	69.0	70.0		17.536283899913542	0.04956140008289367
2	13.245613900013268	stim	21		2	unambiguous	left	preferred	69.0	70.0		17.585845299996436	0.03325049998238683
2	13.278864399995655	stim	22		2	unambiguous	left	preferred	69.0	70.0		17.619095799978822	0.033326599979773164
2	13.312190999975428	stim	23		2	unambiguous	left	preferred	69.0	70.0		17.652422399958596	0.03356809995602816
2	13.345759099931456	stim	24		2	unambiguous	left	preferred	69.0	70.0		17.685990499914624	0.033393100020475686
2	13.379152199951932	stim	25		2	unambiguous	left	preferred	69.0	70.0		17.7193835999351	0.03350969997700304
2	13.412661899928935	stim	26		2	unambiguous	left	preferred	69.0	70.0		17.752893299912103	0.032354700029827654
2	13.445016599958763	stim	27		2	unambiguous	left	preferred	69.0	70.0		17.78524799994193	0.03422200004570186
2	13.479238600004464	stim	28		2	unambiguous	left	preferred	69.0	70.0		17.819469999987632	0.03290610003750771
2	13.512144700041972	stim	29		2	unambiguous	left	preferred	69.0	70.0		17.85237610002514	0.03333749994635582
2	13.545482199988328	stim	30		2	unambiguous	left	preferred	69.0	70.0		17.885713599971496	0.03390449995640665
2	13.579386699944735	stim	31		2	unambiguous	left	preferred	69.0	70.0		17.919618099927902	0.032920800033025444
2	13.61230749997776	stim	32		2	unambiguous	left	preferred	69.0	70.0		17.952538899960928	0.034897000063210726
2	13.64720450004097	stim	33		2	unambiguous	left	preferred	69.0	70.0		17.98743590002414	0.031660899985581636
2	13.678865400026552	stim	34		2	unambiguous	left	preferred	69.0	70.0		18.01909680000972	0.03339469991624355
2	13.712260099942796	stim	35		2	unambiguous	left	preferred	69.0	70.0		18.052491499925964	0.032105499994941056
2	13.744365599937737	stim	36		2	unambiguous	left	preferred	69.0	70.0		18.084596999920905	0.0346756000071764
2	13.779041199944913	stim	37		2	unambiguous	left	preferred	69.0	70.0		18.11927259992808	0.034150500083342195
2	13.813191700028256	stim	38		2	unambiguous	left	preferred	69.0	70.0		18.153423100011423	0.032693799934349954
2	13.845885499962606	stim	39		2	unambiguous	left	preferred	69.0	70.0		18.186116899945773	0.03302239999175072
2	13.878907899954356	stim	40		2	unambiguous	left	preferred	69.0	70.0		18.219139299937524	0.033294200082309544
2	13.912202100036666	stim	41		2	unambiguous	left	preferred	69.0	70.0		18.252433500019833	0.03325269999913871
2	13.945454800035805	stim	42		2	unambiguous	left	preferred	69.0	70.0		18.285686200018972	0.03330039989668876
2	13.978755199932493	stim	43		2	unambiguous	left	preferred	69.0	70.0		18.31898659991566	0.033885000040754676
2	14.012640199973248	stim	44		2	unambiguous	left	preferred	69.0	70.0		18.352871599956416	0.032615500036627054
2	14.045255700009875	stim	45		2	unambiguous	left	preferred	69.0	70.0		18.385487099993043	0.03534399997442961
2	14.080599699984305	stim	46		2	unambiguous	left	preferred	69.0	70.0		18.420831099967472	0.031654000049456954
2	14.112253700033762	stim	47		2	unambiguous	left	preferred	69.0	70.0		18.45248510001693	0.033632999984547496
2	14.145886700018309	stim	48		2	unambiguous	left	preferred	69.0	70.0		18.486118100001477	0.03333759994711727
2	14.179224299965426	stim	49		2	unambiguous	left	preferred	69.0	70.0		18.519455699948594	0.03408180002588779
2	14.213306099991314	stim	50		2	unambiguous	left	preferred	69.0	70.0		18.55353749997448	0.033043700037524104
2	14.246349800028838	stim	51		2	unambiguous	left	preferred	69.0	70.0		18.586581200012006	0.03450889990199357
2	14.280858699930832	stim	52		2	unambiguous	left	preferred	69.0	70.0		18.621090099914	0.0320754999993369
2	14.312934199930169	stim	53		2	unambiguous	left	preferred	69.0	70.0		18.653165599913336	0.033379300031811
2	14.34631349996198	stim	54		2	unambiguous	left	preferred	69.0	70.0		18.686544899945147	0.03336610004771501
2	14.379679600009695	stim	55		2	unambiguous	left	preferred	69.0	70.0		18.719910999992862	0.0337137000169605
2	14.413393300026655	stim	56		2	unambiguous	left	preferred	69.0	70.0		18.753624700009823	0.033233099966309965
2	14.446626399992965	stim	57		2	unambiguous	left	preferred	69.0	70.0		18.786857799976133	0.033403699984773993
2	14.48003009997774	stim	58		2	unambiguous	left	preferred	69.0	70.0		18.820261499960907	0.03306299995165318
2	14.513093099929392	stim	59		2	unambiguous	left	preferred	69.0	70.0		18.85332449991256	0.03332100005354732
2	14.54641409998294	stim	60		2	unambiguous	left	preferred	69.0	70.0		18.886645499966107	0.03336430003400892
2	14.579778400016949	stim	61		2	unambiguous	left	preferred	69.0	70.0		18.920009800000116	0.03330180002376437
2	14.613080200040713	stim	62		2	unambiguous	left	preferred	69.0	70.0		18.95331160002388	0.03385039989370853
2	14.646930599934421	stim	63		2	unambiguous	left	preferred	69.0	70.0		18.98716199991759	0.032902600010856986
2	14.679833199945278	stim	64		2	unambiguous	left	preferred	69.0	70.0		19.020064599928446	0.03422800009138882
2	14.714061200036667	stim	65		2	unambiguous	left	preferred	69.0	70.0		19.054292600019835	0.03238359990064055
2	14.746444799937308	stim	66		2	unambiguous	left	preferred	69.0	70.0		19.086676199920475	0.03373030002694577
2	14.780175099964254	stim	67		2	unambiguous	left	preferred	69.0	70.0		19.12040649994742	0.033316200016997755
2	14.813491299981251	stim	68		2	unambiguous	left	preferred	69.0	70.0		19.15372269996442	0.034403800033032894
3	14.847895100014284	stim	0		2	unambiguous	right	preferred	68.0	139.0		19.188126499997452	0.032867199974134564
3	14.880762299988419	stim	1		2	unambiguous	right	preferred	68.0	139.0		19.220993699971586	0.03329499997198582
3	14.914057299960405	stim	2		2	unambiguous	right	preferred	68.0	139.0		19.254288699943572	0.03330180002376437
3	14.947359099984169	stim	3		2	unambiguous	right	preferred	68.0	139.0		19.287590499967337	0.03333070001099259
3	14.980689799995162	stim	4		2	unambiguous	right	preferred	68.0	139.0		19.32092119997833	0.033344099996611476
3	15.014033899991773	stim	5		2	unambiguous	right	preferred	68.0	139.0		19.35426529997494	0.03406540001742542
3	15.048099300009198	stim	6		2	unambiguous	right	preferred	68.0	139.0		19.388330699992366	0.03306049993261695
3	15.081159799941815	stim	7		2	unambiguous	right	preferred	68.0	139.0		19.421391199924983	0.03324030002113432
3	15.11440009996295	stim	8		2	unambiguous	right	preferred	68.0	139.0		19.454631499946117	0.033225600025616586
3	15.147625699988566	stim	9		2	unambiguous	right	preferred	68.0	139.0		19.487857099971734	0.03335949999745935
3	15.180985199986026	stim	10		2	unambiguous	right	preferred	68.0	139.0		19.521216599969193	0.03336590004619211
3	15.214351100032218	stim	11		2	unambiguous	right	preferred	68.0	139.0		19.554582500015385	0.03350459993816912
3	15.247855699970387	stim	12		2	unambiguous	right	preferred	68.0	139.0		19.588087099953555	0.034395999973639846
3	15.282251699944027	stim	13		2	unambiguous	right	preferred	68.0	139.0		19.622483099927194	0.03238970006350428
3	15.314641400007531	stim	14		2	unambiguous	right	preferred	68.0	139.0		19.6548727999907	0.033382499939762056
3	15.348023899947293	stim	15		2	unambiguous	right	preferred	68.0	139.0		19.68825529993046	0.033587299985811114
3	15.381611199933104	stim	16		2	unambiguous	right	preferred	68.0	139.0		19.721842599916272	0.050341200083494186
3	15.431952400016598	stim	17		2	unambiguous	right	preferred	68.0	139.0		19.772183799999766	0.050071600009687245
3	15.482024000026286	stim	18		2	unambiguous	right	preferred	68.0	139.0		19.822255400009453	0.03303779999259859
3	15.515061800018884	stim	19		2	unambiguous	right	preferred	68.0	139.0		19.855293200002052	0.033320499933324754
3	15.548382299952209	stim	20		2	unambiguous	right	preferred	68.0	139.0		19.888613699935377	0.03338110004551709
3	15.581763399997726	stim	21		2	unambiguous	right	preferred	68.0	139.0		19.921994799980894	0.03333310002926737
3	15.615096500026993	stim	22		2	unambiguous	right	preferred	68.0	139.0		19.95532790001016	0.03340969991404563
3	15.648506199941039	stim	23		2	unambiguous	right	preferred	68.0	139.0		19.988737599924207	0.033737000077962875
3	15.682243200019002	stim	24		2	unambiguous	right	preferred	68.0	139.0		20.02247460000217	0.033390199998393655
3	15.715633400017396	stim	25		2	unambiguous	right	preferred	68.0	139.0		20.055864800000563	0.033281999989412725
3	15.748915400006808	stim	26		2	unambiguous	right	preferred	68.0	139.0		20.089146799989976	0.03331680002156645
3	15.782232200028375	stim	27		2	unambiguous	right	preferred	68.0	139.0		20.122463600011542	0.03328430000692606
3	15.8155165000353	stim	28		2	unambiguous	right	preferred	68.0	139.0		20.15574790001847	0.033620999893173575
3	15.849137499928474	stim	29		2	unambiguous	right	preferred	68.0	139.0		20.189368899911642	0.033571000094525516
3	15.882708500023	stim	30		2	unambiguous	right	preferred	68.0	139.0		20.222939900006168	0.03334809991065413
3	15.916056599933654	stim	31		2	unambiguous	right	preferred	68.0	139.0		20.25628799991682	0.03316620003897697
3	15.949222799972631	stim	32		2	unambiguous	right	preferred	68.0	139.0		20.2894541999558	0.03329950000625104
3	15.982522299978882	stim	33		2	unambiguous	right	preferred	68.0	139.0		20.32275369996205	0.03330680006183684
3	16.01582910004072	stim	34		2	unambiguous	right	preferred	68.0	139.0		20.356060500023887	0.03342339990194887
3	16.049252499942668	stim	35		2	unambiguous	right	preferred	68.0	139.0		20.389483899925835	0.033300000010058284
3	16.082552499952726	stim	36		2	unambiguous	right	preferred	68.0	139.0		20.422783899935894	0.033880600007250905
3	16.116433099959977	stim	37		2	unambiguous	right	preferred	68.0	139.0		20.456664499943145	0.032904100022278726
3	16.149337199982256	stim	38		2	unambiguous	right	preferred	68.0	139.0		20.489568599965423	0.03368690004572272
3	16.18302410002798	stim	39		2	unambiguous	right	preferred	68.0	139.0		20.523255500011146	0.049585499917156994
3	16.232609599945135	stim	40		2	unambiguous	right	preferred	68.0	139.0		20.572840999928303	0.03353780007455498
3	16.26614740001969	stim	41		2	unambiguous	right	preferred	68.0	139.0		20.606378800002858	0.0335705999750644
3	16.299717999994755	stim	42		2	unambiguous	right	preferred	68.0	139.0		20.639949399977922	0.034314399934373796
3	16.33403239992913	stim	43		2	unambiguous	right	preferred	68.0	139.0		20.674263799912296	0.0330134000396356
3	16.367045799968764	stim	44		2	unambiguous	right	preferred	68.0	139.0		20.707277199951932	0.032712999964132905
3	16.399758799932897	stim	45		2	unambiguous	right	preferred	68.0	139.0		20.739990199916065	0.03327650006394833
3	16.433035299996845	stim	46		2	unambiguous	right	preferred	68.0	139.0		20.773266699980013	0.033331000013276935
3	16.466366300010122	stim	47		2	unambiguous	right	preferred	68.0	139.0		20.80659769999329	0.033541199984028935
3	16.49990749999415	stim	48		2	unambiguous	right	preferred	68.0	139.0		20.84013889997732	0.033904099953360856
3	16.533811599947512	stim	49		2	unambiguous	right	preferred	68.0	139.0		20.87404299993068	0.03293740004301071
3	16.566748999990523	stim	50		2	unambiguous	right	preferred	68.0	139.0		20.90698039997369	0.033676199964247644
3	16.60042519995477	stim	51		2	unambiguous	right	preferred	68.0	139.0		20.940656599937938	0.03331389999948442
3	16.633739099954255	stim	52		2	unambiguous	right	preferred	68.0	139.0		20.973970499937423	0.050016800058074296
3	16.68375590001233	stim	53		2	unambiguous	right	preferred	68.0	139.0		21.023987299995497	0.03346930001862347
3	16.717225200030953	stim	54		2	unambiguous	right	preferred	68.0	139.0		21.05745660001412	0.033548399922437966
3	16.75077359995339	stim	55		2	unambiguous	right	preferred	68.0	139.0		21.09100499993656	0.032868799986317754
3	16.78364239993971	stim	56		2	unambiguous	right	preferred	68.0	139.0		21.123873799922876	0.033335600048303604
3	16.816977999988012	stim	57		2	unambiguous	right	preferred	68.0	139.0		21.15720939997118	0.03330390003975481
3	16.850281900027767	stim	58		2	unambiguous	right	preferred	68.0	139.0		21.190513300010934	0.033285000012256205
3	16.883566900040023	stim	59		2	unambiguous	right	preferred	68.0	139.0		21.22379830002319	0.033831799984909594
3	16.917398700024933	stim	60		2	unambiguous	right	preferred	68.0	139.0		21.2576301000081	0.03378149995114654
3	16.95118019997608	stim	61		2	unambiguous	right	preferred	68.0	139.0		21.291411599959247	0.033022699994035065
3	16.984202899970114	stim	62		2	unambiguous	right	preferred	68.0	139.0		21.324434299953282	0.0332858000183478
3	17.017488699988462	stim	63		2	unambiguous	right	preferred	68.0	139.0		21.35772009997163	0.03333150001708418
3	17.050820200005546	stim	64		2	unambiguous	right	preferred	68.0	139.0		21.391051599988714	0.03381639998406172
3	17.084636599989608	stim	65		2	unambiguous	right	preferred	68.0	139.0		21.424867999972776	0.033292099949903786
3	17.11792869993951	stim	66		2	unambiguous	right	preferred	68.0	139.0		21.45816009992268	0.033664399990811944
3	17.151593099930324	stim	67		2	unambiguous	right	preferred	68.0	139.0		21.49182449991349	0.033202200080268085
4	17.18479530001059	stim	0		2	unambiguous	left	preferred	68.0	17.0		21.52502669999376	0.03322889993432909
4	17.21802419994492	stim	1		2	unambiguous	left	preferred	68.0	17.0		21.55825559992809	0.03332630009390414
4	17.251350500038825	stim	2		2	unambiguous	left	preferred	68.0	17.0		21.591581900021993	0.03333549993112683
4	17.284685999969952	stim	3		2	unambiguous	left	preferred	68.0	17.0		21.62491739995312	0.0332668999908492
4	17.3179528999608	stim	4		2	unambiguous	left	preferred	68.0	17.0		21.65818429994397	0.03365370002575219
4	17.351606599986553	stim	5		2	unambiguous	left	preferred	68.0	17.0		21.69183799996972	0.0335579999955371
4	17.38516459998209	stim	6		2	unambiguous	left	preferred	68.0	17.0		21.725395999965258	0.033064099960029125
4	17.41822869994212	stim	7		2	unambiguous	left	preferred	68.0	17.0		21.758460099925287	0.03341440006624907
4	17.45164310000837	stim	8		2	unambiguous	left	preferred	68.0	17.0		21.791874499991536	0.033388699986971915
4	17.48503179999534	stim	9		2	unambiguous	left	preferred	68.0	17.0		21.825263199978508	0.033252199995331466
4	17.518283999990672	stim	10		2	unambiguous	left	preferred	68.0	17.0		21.85851539997384	0.033429999952204525
4	17.551713999942876	stim	11		2	unambiguous	left	preferred	68.0	17.0		21.891945399926044	0.03382790007162839
4	17.585541900014505	stim	12		2	unambiguous	left	preferred	68.0	17.0		21.925773299997672	0.03302899992559105
4	17.618570899940096	stim	13		2	unambiguous	left	preferred	68.0	17.0		21.958802299923263	0.03328920004423708
4	17.651860099984333	stim	14		2	unambiguous	left	preferred	68.0	17.0		21.9920914999675	0.033376700012013316
4	17.685236799996346	stim	15		2	unambiguous	left	preferred	68.0	17.0		22.025468199979514	0.03330410004127771
4	17.718540900037624	stim	16		2	unambiguous	left	preferred	68.0	17.0		22.05877230002079	0.03329279995523393
4	17.751833699992858	stim	17		2	unambiguous	left	preferred	68.0	17.0		22.092065099976026	0.0337063999613747
4	17.785540099954233	stim	18		2	unambiguous	left	preferred	68.0	17.0		22.1257714999374	0.03372850001323968
4	17.819268599967472	stim	19		2	unambiguous	left	preferred	68.0	17.0		22.15949999995064	0.03294209996238351
4	17.852210699929856	stim	20		2	unambiguous	left	preferred	68.0	17.0		22.192442099913023	0.03338220005389303
4	17.88559289998375	stim	21		2	unambiguous	left	preferred	68.0	17.0		22.225824299966916	0.03328129998408258
4	17.91887419996783	stim	22		2	unambiguous	left	preferred	68.0	17.0		22.259105599951	0.03358809999190271
4	17.952462299959734	stim	23		2	unambiguous	left	preferred	68.0	17.0		22.2926936999429	0.03355699998792261
4	17.986019299947657	stim	24		2	unambiguous	left	preferred	68.0	17.0		22.326250699930824	0.03415550000499934
4	18.020174799952656	stim	25		2	unambiguous	left	preferred	68.0	17.0		22.360406199935824	0.03286310005933046
4	18.053037900011986	stim	26		2	unambiguous	left	preferred	68.0	17.0		22.393269299995154	0.03374179999809712
4	18.086779700010084	stim	27		2	unambiguous	left	preferred	68.0	17.0		22.42701109999325	0.032890899921767414
4	18.11967059993185	stim	28		2	unambiguous	left	preferred	68.0	17.0		22.45990199991502	0.03332100005354732
4	18.1529915999854	stim	29		2	unambiguous	left	preferred	68.0	17.0		22.493222999968566	0.033757500001229346
4	18.186749099986628	stim	30		2	unambiguous	left	preferred	68.0	17.0		22.526980499969795	0.034052400034852326
4	18.22080150002148	stim	31		2	unambiguous	left	preferred	68.0	17.0		22.561032900004648	0.03249159990809858
4	18.25329309992958	stim	32		2	unambiguous	left	preferred	68.0	17.0		22.593524499912746	0.033350500045344234
4	18.286643599974923	stim	33		2	unambiguous	left	preferred	68.0	17.0		22.62687499995809	0.033548900042660534
4	18.320192500017583	stim	34		2	unambiguous	left	preferred	68.0	17.0		22.66042390000075	0.033369499957188964
4	18.353561999974772	stim	35		2	unambiguous	left	preferred	68.0	17.0		22.69379339995794	0.03314750001300126
4	18.386709499987774	stim	36		2	unambiguous	left	preferred	68.0	17.0		22.72694089997094	0.03380930004641414
4	18.420518800034188	stim	37		2	unambiguous	left	preferred	68.0	17.0		22.760750200017355	0.03304829995613545
4	18.453567099990323	stim	38		2	unambiguous	left	preferred	68.0	17.0		22.79379849997349	0.03318929998204112
4	18.486756399972364	stim	39		2	unambiguous	left	preferred	68.0	17.0		22.826987799955532	0.033551800064742565
4	18.520308200037107	stim	40		2	unambiguous	left	preferred	68.0	17.0		22.860539600020275	0.033228699932806194
4	18.553536899969913	stim	41		2	unambiguous	left	preferred	68.0	17.0		22.89376829995308	0.033443800057284534
4	18.586980700027198	stim	42		2	unambiguous	left	preferred	68.0	17.0		22.927212100010365	0.03334630001336336
4	18.62032700004056	stim	43		2	unambiguous	left	preferred	68.0	17.0		22.96055840002373	0.033870199928060174
4	18.65419719996862	stim	44		2	unambiguous	left	preferred	68.0	17.0		22.99442859995179	0.0329506000271067
4	18.687147799995728	stim	45		2	unambiguous	left	preferred	68.0	17.0		23.027379199978895	0.033184599946253
4	18.72033239994198	stim	46		2	unambiguous	left	preferred	68.0	17.0		23.06056379992515	0.033477900084108114
4	18.75381030002609	stim	47		2	unambiguous	left	preferred	68.0	17.0		23.094041700009257	0.033378099906258285
4	18.787188399932347	stim	48		2	unambiguous	left	preferred	68.0	17.0		23.127419799915515	0.03316320001613349
4	18.82035159994848	stim	49		2	unambiguous	left	preferred	68.0	17.0		23.16058299993165	0.03405310004018247
4	18.854404699988663	stim	50		2	unambiguous	left	preferred	68.0	17.0		23.19463609997183	0.03281999996397644
4	18.88722469995264	stim	51		2	unambiguous	left	preferred	68.0	17.0		23.227456099935807	0.03332090005278587
4	18.920545600005426	stim	52		2	unambiguous	left	preferred	68.0	17.0		23.260776999988593	0.033253700006753206
4	18.95379930001218	stim	53		2	unambiguous	left	preferred	68.0	17.0		23.294030699995346	0.03338179993443191
4	18.98718109994661	stim	54		2	unambiguous	left	preferred	68.0	17.0		23.32741249992978	0.03329520008992404
4	19.020476300036535	stim	55		2	unambiguous	left	preferred	68.0	17.0		23.360707700019702	0.03381589998025447
4	19.05429220001679	stim	56		2	unambiguous	left	preferred	68.0	17.0		23.394523599999957	0.03342779993545264
4	19.087719999952242	stim	57		2	unambiguous	left	preferred	68.0	17.0		23.42795139993541	0.033013800042681396
4	19.120733799994923	stim	58		2	unambiguous	left	preferred	68.0	17.0		23.46096519997809	0.033372499980032444
4	19.154106299974956	stim	59		2	unambiguous	left	preferred	68.0	17.0		23.494337699958123	0.033670500037260354
4	19.187776800012216	stim	60		2	unambiguous	left	preferred	68.0	17.0		23.528008199995384	0.0337143000215292
4	19.221491100033745	stim	61		2	unambiguous	left	preferred	68.0	17.0		23.561722500016913	0.033413599943742156
4	19.254904699977487	stim	62		2	unambiguous	left	preferred	68.0	17.0		23.595136099960655	0.03389159997459501
4	19.288796299952082	stim	63		2	unambiguous	left	preferred	68.0	17.0		23.62902769993525	0.03344440006185323
4	19.322240700013936	stim	64		2	unambiguous	left	preferred	68.0	17.0		23.662472099997103	0.03344409994315356
4	19.35568479995709	stim	65		2	unambiguous	left	preferred	68.0	17.0		23.695916199940257	0.03379250003490597
4	19.389477299991995	stim	66		2	unambiguous	left	preferred	68.0	17.0		23.729708699975163	0.03401589998975396
4	19.42349319998175	stim	67		2	unambiguous	left	preferred	68.0	17.0		23.763724599964917	0.03438840003218502
5	19.457881600013934	stim	0		2	unambiguous	right	preferred	70.0	85.0		23.7981129999971	0.033071600017137825
5	19.490953200031072	stim	1		2	unambiguous	right	preferred	70.0	85.0		23.83118460001424	0.03327719995286316
5	19.524230399983935	stim	2		2	unambiguous	right	preferred	70.0	85.0		23.864461799967103	0.03366019995883107
5	19.557890599942766	stim	3		2	unambiguous	right	preferred	70.0	85.0		23.898121999925934	0.03366750001441687
5	19.591558099957183	stim	4		2	unambiguous	right	preferred	70.0	85.0		23.93178949994035	0.03370050003286451
5	19.625258599990048	stim	5		2	unambiguous	right	preferred	70.0	85.0		23.965489999973215	0.03674360003788024
5	19.662002200027928	stim	6		2	unambiguous	right	preferred	70.0	85.0		24.002233600011095	0.033283500000834465
5	19.695285700028762	stim	7		2	unambiguous	right	preferred	70.0	85.0		24.03551710001193	0.0332349999807775
5	19.72852070000954	stim	8		2	unambiguous	right	preferred	70.0	85.0		24.068752099992707	0.033542699995450675
5	19.76206340000499	stim	9		2	unambiguous	right	preferred	70.0	85.0		24.102294799988158	0.03322250000201166
5	19.795285900007002	stim	10		2	unambiguous	right	preferred	70.0	85.0		24.13551729999017	0.03414469992276281
5	19.829430599929765	stim	11		2	unambiguous	right	preferred	70.0	85.0		24.169661999912933	0.03312910010572523
5	19.86255970003549	stim	12		2	unambiguous	right	preferred	70.0	85.0		24.202791100018658	0.03464909992180765
5	19.897208799957298	stim	13		2	unambiguous	right	preferred	70.0	85.0		24.237440199940465	0.03147619997616857
5	19.928684999933466	stim	14		2	unambiguous	right	preferred	70.0	85.0		24.268916399916634	0.033504600054584444
5	19.96218959998805	stim	15		2	unambiguous	right	preferred	70.0	85.0		24.30242099997122	0.03318949998356402
5	19.995379099971615	stim	16		2	unambiguous	right	preferred	70.0	85.0		24.335610499954782	0.033744100015610456
5	20.029123199987225	stim	17		2	unambiguous	right	preferred	70.0	85.0		24.369354599970393	0.03298200003337115
5	20.062105200020596	stim	18		2	unambiguous	right	preferred	70.0	85.0		24.402336600003764	0.03521190001629293
5	20.09731710003689	stim	19		2	unambiguous	right	preferred	70.0	85.0		24.437548500020057	0.03155620000325143
5	20.12887330004014	stim	20		2	unambiguous	right	preferred	70.0	85.0		24.46910470002331	0.03194199991412461
5	20.160815299954265	stim	21		2	unambiguous	right	preferred	70.0	85.0		24.501046699937433	0.03448250005021691
5	20.195297800004482	stim	22		2	unambiguous	right	preferred	70.0	85.0		24.53552919998765	0.033464099979028106
5	20.22876189998351	stim	23		2	unambiguous	right	preferred	70.0	85.0		24.568993299966678	0.03387070004828274
5	20.262632600031793	stim	24		2	unambiguous	right	preferred	70.0	85.0		24.60286400001496	0.03298949997406453
5	20.295622100005858	stim	25		2	unambiguous	right	preferred	70.0	85.0		24.635853499989025	0.03322059998754412
5	20.3288426999934	stim	26		2	unambiguous	right	preferred	70.0	85.0		24.66907409997657	0.03333719994407147
5	20.362179899937473	stim	27		2	unambiguous	right	preferred	70.0	85.0		24.70241129992064	0.033221099991351366
5	20.395400999928825	stim	28		2	unambiguous	right	preferred	70.0	85.0		24.735632399911992	0.033353500068187714
5	20.428754499997012	stim	29		2	unambiguous	right	preferred	70.0	85.0		24.76898589998018	0.03363570000510663
5	20.46239020000212	stim	30		2	unambiguous	right	preferred	70.0	85.0		24.802621599985287	0.0331727999728173
5	20.495562999974936	stim	31		2	unambiguous	right	preferred	70.0	85.0		24.835794399958104	0.034979899995960295
5	20.530542899970897	stim	32		2	unambiguous	right	preferred	70.0	85.0		24.870774299954064	0.031433199997991323
5	20.561976099968888	stim	33		2	unambiguous	right	preferred	70.0	85.0		24.902207499952056	0.03332569997292012
5	20.595301799941808	stim	34		2	unambiguous	right	preferred	70.0	85.0		24.935533199924976	0.033488100045360625
5	20.62878989998717	stim	35		2	unambiguous	right	preferred	70.0	85.0		24.969021299970336	0.03336819994729012
5	20.66215809993446	stim	36		2	unambiguous	right	preferred	70.0	85.0		25.002389499917626	0.033756300108507276
5	20.695914400042966	stim	37		2	unambiguous	right	preferred	70.0	85.0		25.036145800026134	0.03440239990595728
5	20.730316799948923	stim	38		2	unambiguous	right	preferred	70.0	85.0		25.07054819993209	0.03187110007274896
5	20.762187900021672	stim	39		2	unambiguous	right	preferred	70.0	85.0		25.10241930000484	0.03315199993085116
5	20.795339899952523	stim	40		2	unambiguous	right	preferred	70.0	85.0		25.13557129993569	0.03332100005354732
5	20.82866090000607	stim	41		2	unambiguous	right	preferred	70.0	85.0		25.16889229998924	0.033312899991869926
5	20.86197379999794	stim	42		2	unambiguous	right	preferred	70.0	85.0		25.20220519998111	0.03371829993557185
5	20.895692099933513	stim	43		2	unambiguous	right	preferred	70.0	85.0		25.23592349991668	0.033522200072184205
5	20.929214300005697	stim	44		2	unambiguous	right	preferred	70.0	85.0		25.269445699988864	0.034617100027389824
5	20.963831400033087	stim	45		2	unambiguous	right	preferred	70.0	85.0		25.304062800016254	0.03149179997853935
5	20.995323200011626	stim	46		2	unambiguous	right	preferred	70.0	85.0		25.335554599994794	0.03288970002904534
5	21.02821290004067	stim	47		2	unambiguous	right	preferred	70.0	85.0		25.36844430002384	0.033812499954365194
5	21.062025399995036	stim	48		2	unambiguous	right	preferred	70.0	85.0		25.402256799978204	0.03354790003504604
5	21.095573300030082	stim	49		2	unambiguous	right	preferred	70.0	85.0		25.43580470001325	0.03413279994856566
5	21.129706099978648	stim	50		2	unambiguous	right	preferred	70.0	85.0		25.469937499961816	0.032664500060491264
5	21.16237060003914	stim	51		2	unambiguous	right	preferred	70.0	85.0		25.502602000022307	0.033111499971710145
5	21.19548210001085	stim	52		2	unambiguous	right	preferred	70.0	85.0		25.535713499994017	0.03330889996141195
5	21.22879099997226	stim	53		2	unambiguous	right	preferred	70.0	85.0		25.56902239995543	0.03322350000962615
5	21.262014499981888	stim	54		2	unambiguous	right	preferred	70.0	85.0		25.602245899965055	0.033396000042557716
5	21.295410500024445	stim	55		2	unambiguous	right	preferred	70.0	85.0		25.635641900007613	0.03384009993169457
5	21.32925059995614	stim	56		2	unambiguous	right	preferred	70.0	85.0		25.669481999939308	0.03340130008291453
5	21.362651900039054	stim	57		2	unambiguous	right	preferred	70.0	85.0		25.702883300022222	0.03444449999369681
5	21.39709640003275	stim	58		2	unambiguous	right	preferred	70.0	85.0		25.73732780001592	0.03175749990623444
5	21.428853899938986	stim	59		2	unambiguous	right	preferred	70.0	85.0		25.769085299922153	0.03314610000234097
5	21.461999999941327	stim	60		2	unambiguous	right	preferred	70.0	85.0		25.802231399924494	0.03338060004170984
5	21.495380599983037	stim	61		2	unambiguous	right	preferred	70.0	85.0		25.835611999966204	0.033586999983526766
5	21.528967599966563	stim	62		2	unambiguous	right	preferred	70.0	85.0		25.86919899994973	0.03420330001972616
5	21.56317089998629	stim	63		2	unambiguous	right	preferred	70.0	85.0		25.903402299969457	0.03395880002062768
5	21.597129700006917	stim	64		2	unambiguous	right	preferred	70.0	85.0		25.937361099990085	0.03171929996460676
5	21.628848999971524	stim	65		2	unambiguous	right	preferred	70.0	85.0		25.96908039995469	0.033222600002773106
5	21.662071599974297	stim	66		2	unambiguous	right	preferred	70.0	85.0		26.002302999957465	0.033434499986469746
5	21.695506099960767	stim	67		2	unambiguous	right	preferred	70.0	85.0		26.035737499943934	0.0332858000183478
5	21.728791899979115	stim	68		2	unambiguous	right	preferred	70.0	85.0		26.069023299962282	0.03386379999574274
5	21.762655699974857	stim	69		2	unambiguous	right	preferred	70.0	85.0		26.102887099958025	0.03349960001651198
6	21.79615529999137	stim	0		2	unambiguous	left	preferred	69.0	155.0		26.136386699974537	0.03405160002876073
6	21.83020690002013	stim	1		2	unambiguous	left	preferred	69.0	155.0		26.170438300003298	0.03254169994033873
6	21.86274859996047	stim	2		2	unambiguous	left	preferred	69.0	155.0		26.202979999943636	0.03330370003823191
6	21.8960522999987	stim	3		2	unambiguous	left	preferred	69.0	155.0		26.23628369998187	0.03334149997681379
6	21.929393799975514	stim	4		2	unambiguous	left	preferred	69.0	155.0		26.269625199958682	0.03404569998383522
6	21.96343949995935	stim	5		2	unambiguous	left	preferred	69.0	155.0		26.303670899942517	0.033098299987614155
6	21.996537799946964	stim	6		2	unambiguous	left	preferred	69.0	155.0		26.33676919993013	0.033099899999797344
6	22.02963769994676	stim	7		2	unambiguous	left	preferred	69.0	155.0		26.36986909992993	0.03343940002378076
6	22.063077099970542	stim	8		2	unambiguous	left	preferred	69.0	155.0		26.40330849995371	0.03331420000176877
6	22.09639129997231	stim	9		2	unambiguous	left	preferred	69.0	155.0		26.43662269995548	0.03376570006366819
6	22.13015700003598	stim	10		2	unambiguous	left	preferred	69.0	155.0		26.470388400019147	0.033884899923577905
6	22.164041899959557	stim	11		2	unambiguous	left	preferred	69.0	155.0		26.504273299942724	0.03298480005469173
6	22.19702670001425	stim	12		2	unambiguous	left	preferred	69.0	155.0		26.537258099997416	0.03329449996817857
6	22.230321199982427	stim	13		2	unambiguous	left	preferred	69.0	155.0		26.570552599965595	0.033731100033037364
6	22.264052300015464	stim	14		2	unambiguous	left	preferred	69.0	155.0		26.604283699998632	0.03302229999098927
6	22.297074600006454	stim	15		2	unambiguous	left	preferred	69.0	155.0		26.63730599998962	0.033677399973385036
6	22.33075199997984	stim	16		2	unambiguous	left	preferred	69.0	155.0		26.670983399963006	0.033769399975426495
6	22.364521399955265	stim	17		2	unambiguous	left	preferred	69.0	155.0		26.704752799938433	0.03334670001640916
6	22.397868099971674	stim	18		2	unambiguous	left	preferred	69.0	155.0		26.738099499954842	0.033258600044064224
6	22.43112670001574	stim	19		2	unambiguous	left	preferred	69.0	155.0		26.771358099998906	0.033335199928842485
6	22.46446189994458	stim	20		2	unambiguous	left	preferred	69.0	155.0		26.80469329992775	0.033494300092570484
6	22.49795620003715	stim	21		2	unambiguous	left	preferred	69.0	155.0		26.83818760002032	0.033308699959889054
6	22.53126489999704	stim	22		2	unambiguous	left	preferred	69.0	155.0		26.87149629998021	0.03351209999527782
6	22.56477699999232	stim	23		2	unambiguous	left	preferred	69.0	155.0		26.905008399975486	0.03420410002581775
6	22.598981100018136	stim	24		2	unambiguous	left	preferred	69.0	155.0		26.939212500001304	0.03279409999959171
6	22.631775200017728	stim	25		2	unambiguous	left	preferred	69.0	155.0		26.972006600000896	0.033393300021998584
6	22.665168500039726	stim	26		2	unambiguous	left	preferred	69.0	155.0		27.005399900022894	0.03329609998036176
6	22.69846460002009	stim	27		2	unambiguous	left	preferred	69.0	155.0		27.038696000003256	0.03384119994007051
6	22.73230579996016	stim	28		2	unambiguous	left	preferred	69.0	155.0		27.072537199943326	0.033793200040236115
6	22.766099000000395	stim	29		2	unambiguous	left	preferred	69.0	155.0		27.106330399983563	0.03420560003723949
6	22.800304600037634	stim	30		2	unambiguous	left	preferred	69.0	155.0		27.140536000020802	0.03236789989750832
6	22.832672499935143	stim	31		2	unambiguous	left	preferred	69.0	155.0		27.17290389991831	0.03329030005261302
6	22.865962799987756	stim	32		2	unambiguous	left	preferred	69.0	155.0		27.206194199970923	0.03328319999855012
6	22.899245999986306	stim	33		2	unambiguous	left	preferred	69.0	155.0		27.239477399969473	0.033338399953208864
6	22.932584399939515	stim	34		2	unambiguous	left	preferred	69.0	155.0		27.272815799922682	0.03334349999204278
6	22.965927899931557	stim	35		2	unambiguous	left	preferred	69.0	155.0		27.306159299914725	0.03378900000825524
6	22.999716899939813	stim	36		2	unambiguous	left	preferred	69.0	155.0		27.33994829992298	0.033070300007238984
6	23.03278719994705	stim	37		2	unambiguous	left	preferred	69.0	155.0		27.37301859993022	0.0333597999997437
6	23.066146999946795	stim	38		2	unambiguous	left	preferred	69.0	155.0		27.406378399929963	0.03327950008679181
6	23.099426500033587	stim	39		2	unambiguous	left	preferred	69.0	155.0		27.439657900016755	0.033507099957205355
6	23.132933599990793	stim	40		2	unambiguous	left	preferred	69.0	155.0		27.47316499997396	0.03354960004799068
6	23.166483200038783	stim	41		2	unambiguous	left	preferred	69.0	155.0		27.50671460002195	0.0337067999644205
6	23.200190000003204	stim	42		2	unambiguous	left	preferred	69.0	155.0		27.54042139998637	0.04969160002656281
6	23.249881600029767	stim	43		2	unambiguous	left	preferred	69.0	155.0		27.590113000012934	0.033349999925121665
6	23.28323159995489	stim	44		2	unambiguous	left	preferred	69.0	155.0		27.623462999938056	0.033276200061663985
6	23.316507800016552	stim	45		2	unambiguous	left	preferred	69.0	155.0		27.65673919999972	0.03414060000795871
6	23.35064840002451	stim	46		2	unambiguous	left	preferred	69.0	155.0		27.69087980000768	0.03328410000540316
6	23.383932500029914	stim	47		2	unambiguous	left	preferred	69.0	155.0		27.72416390001308	0.03368379990570247
6	23.417616299935617	stim	48		2	unambiguous	left	preferred	69.0	155.0		27.757847699918784	0.03310380002949387
6	23.45072009996511	stim	49		2	unambiguous	left	preferred	69.0	155.0		27.790951499948278	0.03340299997944385
6	23.484123099944554	stim	50		2	unambiguous	left	preferred	69.0	155.0		27.824354499927722	0.033235999988391995
6	23.517359099932946	stim	51		2	unambiguous	left	preferred	69.0	155.0		27.857590499916114	0.033286500023677945
6	23.550645599956624	stim	52		2	unambiguous	left	preferred	69.0	155.0		27.890876999939792	0.03354309999849647
6	23.58418869995512	stim	53		2	unambiguous	left	preferred	69.0	155.0		27.92442009993829	0.033852700027637184
6	23.618041399982758	stim	54		2	unambiguous	left	preferred	69.0	155.0		27.958272799965926	0.03330829995684326
6	23.6513496999396	stim	55		2	unambiguous	left	preferred	69.0	155.0		27.99158109992277	0.03331580001395196
6	23.684665499953553	stim	56		2	unambiguous	left	preferred	69.0	155.0		28.02489689993672	0.033519200049340725
6	23.718184700002894	stim	57		2	unambiguous	left	preferred	69.0	155.0		28.05841609998606	0.033390099997632205
6	23.751574800000526	stim	58		2	unambiguous	left	preferred	69.0	155.0		28.091806199983694	0.033325099968351424
6	23.784899899968877	stim	59		2	unambiguous	left	preferred	69.0	155.0		28.125131299952045	0.03359880007337779
6	23.818498700042255	stim	60		2	unambiguous	left	preferred	69.0	155.0		28.158730100025423	0.03352969989646226
6	23.852028399938717	stim	61		2	unambiguous	left	preferred	69.0	155.0		28.192259799921885	0.03307280002627522
6	23.885101199964993	stim	62		2	unambiguous	left	preferred	69.0	155.0		28.22533259994816	0.03332240006420761
6	23.9184236000292	stim	63		2	unambiguous	left	preferred	69.0	155.0		28.258655000012368	0.033632899983786047
6	23.952056500012986	stim	64		2	unambiguous	left	preferred	69.0	155.0		28.292287899996154	0.0332971999887377
6	23.985353700001724	stim	65		2	unambiguous	left	preferred	69.0	155.0		28.32558509998489	0.03363680001348257
6	24.018990500015207	stim	66		2	unambiguous	left	preferred	69.0	155.0		28.359221899998374	0.035053899977356195
6	24.054044399992563	stim	67		2	unambiguous	left	preferred	69.0	155.0		28.39427579997573	0.03170049993786961
6	24.085744899930432	stim	68		2	unambiguous	left	preferred	69.0	155.0		28.4259762999136	0.0333246000809595
7	24.119069500011392	stim	0		2	unambiguous	right	preferred	67.0	34.0		28.45930089999456	0.03363109997007996
7	24.152700599981472	stim	1		2	unambiguous	right	preferred	67.0	34.0		28.49293199996464	0.03329459996894002
7	24.185995199950412	stim	2		2	unambiguous	right	preferred	67.0	34.0		28.52622659993358	0.033492700080387294
7	24.2194879000308	stim	3		2	unambiguous	right	preferred	67.0	34.0		28.559719300013967	0.033960299915634096
7	24.253448199946433	stim	4		2	unambiguous	right	preferred	67.0	34.0		28.5936795999296	0.03297780000139028
7	24.286425999947824	stim	5		2	unambiguous	right	preferred	67.0	34.0		28.62665739993099	0.03333480004221201
7	24.319760799990036	stim	6		2	unambiguous	right	preferred	67.0	34.0		28.659992199973203	0.03334199998062104
7	24.353102799970657	stim	7		2	unambiguous	right	preferred	67.0	34.0		28.693334199953824	0.03384100005496293
7	24.38694380002562	stim	8		2	unambiguous	right	preferred	67.0	34.0		28.727175200008787	0.03362110001035035
7	24.42056490003597	stim	9		2	unambiguous	right	preferred	67.0	34.0		28.760796300019138	0.03343660000246018
7	24.45400150003843	stim	10		2	unambiguous	right	preferred	67.0	34.0		28.794232900021598	0.03316829993855208
7	24.487169799976982	stim	11		2	unambiguous	right	preferred	67.0	34.0		28.82740119996015	0.033158999984152615
7	24.520328799961135	stim	12		2	unambiguous	right	preferred	67.0	34.0		28.860560199944302	0.033298299997113645
7	24.55362709995825	stim	13		2	unambiguous	right	preferred	67.0	34.0		28.893858499941416	0.033354900078848004
7	24.586982000037096	stim	14		2	unambiguous	right	preferred	67.0	34.0		28.927213400020264	0.03330589993856847
7	24.620287899975665	stim	15		2	unambiguous	right	preferred	67.0	34.0		28.960519299958833	0.034204600029625
7	24.65449250000529	stim	16		2	unambiguous	right	preferred	67.0	34.0		28.994723899988458	0.033201999962329865
7	24.68769449996762	stim	17		2	unambiguous	right	preferred	67.0	34.0		29.027925899950787	0.033227400039322674
7	24.720921900006942	stim	18		2	unambiguous	right	preferred	67.0	34.0		29.06115329999011	0.03335569996852428
7	24.754277599975467	stim	19		2	unambiguous	right	preferred	67.0	34.0		29.094508999958634	0.03342310001607984
7	24.787700699991547	stim	20		2	unambiguous	right	preferred	67.0	34.0		29.127932099974714	0.03329589997883886
7	24.820996599970385	stim	21		2	unambiguous	right	preferred	67.0	34.0		29.161227999953553	0.034031499992124736
7	24.85502809996251	stim	22		2	unambiguous	right	preferred	67.0	34.0		29.195259499945678	0.033685100032016635
7	24.888713199994527	stim	23		2	unambiguous	right	preferred	67.0	34.0		29.228944599977694	0.03309439995791763
7	24.921807599952444	stim	24		2	unambiguous	right	preferred	67.0	34.0		29.262038999935612	0.033548700041137636
7	24.955356299993582	stim	25		2	unambiguous	right	preferred	67.0	34.0		29.29558769997675	0.03334039996843785
7	24.98869669996202	stim	26		2	unambiguous	right	preferred	67.0	34.0		29.328928099945188	0.03354920004494488
7	25.022245900006965	stim	27		2	unambiguous	right	preferred	67.0	34.0		29.362477299990132	0.03335219994187355
7	25.05559809994884	stim	28		2	unambiguous	right	preferred	67.0	34.0		29.395829499932006	0.0342859000666067
7	25.089884000015445	stim	29		2	unambiguous	right	preferred	67.0	34.0		29.430115399998613	0.032734000007621944
7	25.122618000023067	stim	30		2	unambiguous	right	preferred	67.0	34.0		29.462849400006235	0.033314400003291667
7	25.15593240002636	stim	31		2	unambiguous	right	preferred	67.0	34.0		29.496163800009526	0.03335479996167123
7	25.18928719998803	stim	32		2	unambiguous	right	preferred	67.0	34.0		29.529518599971198	0.03350789996329695
7	25.222795099951327	stim	33		2	unambiguous	right	preferred	67.0	34.0		29.563026499934494	0.033130700001493096
7	25.25592579995282	stim	34		2	unambiguous	right	preferred	67.0	34.0		29.596157199935988	0.034064400009810925
7	25.28999019996263	stim	35		2	unambiguous	right	preferred	67.0	34.0		29.6302215999458	0.0328656000783667
7	25.322855800040998	stim	36		2	unambiguous	right	preferred	67.0	34.0		29.663087200024165	0.03325300000142306
7	25.35610880004242	stim	37		2	unambiguous	right	preferred	67.0	34.0		29.69634020002559	0.033763399929739535
7	25.38987219997216	stim	38		2	unambiguous	right	preferred	67.0	34.0		29.730103599955328	0.049973599961958826
7	25.43984579993412	stim	39		2	unambiguous	right	preferred	67.0	34.0		29.780077199917287	0.050234700087457895
7	25.490080500021577	stim	40		2	unambiguous	right	preferred	67.0	34.0		29.830311900004745	0.03344529995229095
7	25.523525799973868	stim	41		2	unambiguous	right	preferred	67.0	34.0		29.863757199957035	0.033339699963107705
7	25.556865499936976	stim	42		2	unambiguous	right	preferred	67.0	34.0		29.897096899920143	0.03332610009238124
7	25.590191600029357	stim	43		2	unambiguous	right	preferred	67.0	34.0		29.930423000012524	0.033467300003394485
7	25.62365890003275	stim	44		2	unambiguous	right	preferred	67.0	34.0		29.96389030001592	0.03339929995127022
7	25.65705819998402	stim	45		2	unambiguous	right	preferred	67.0	34.0		29.99728959996719	0.03355639998335391
7	25.690614599967375	stim	46		2	unambiguous	right	preferred	67.0	34.0		30.030845999950543	0.03368610003963113
7	25.724300700007007	stim	47		2	unambiguous	right	preferred	67.0	34.0		30.064532099990174	0.03366640000604093
7	25.757967100013047	stim	48		2	unambiguous	right	preferred	67.0	34.0		30.098198499996215	0.03663119999691844
7	25.794598300009966	stim	49		2	unambiguous	right	preferred	67.0	34.0		30.134829699993134	0.03030199999921024
7	25.824900300009176	stim	50		2	unambiguous	right	preferred	67.0	34.0		30.165131699992344	0.036439299932681024
7	25.861339599941857	stim	51		2	unambiguous	right	preferred	67.0	34.0		30.201570999925025	0.030269699986092746
7	25.89160929992795	stim	52		2	unambiguous	right	preferred	67.0	34.0		30.231840699911118	0.03851480002049357
7	25.930124099948443	stim	53		2	unambiguous	right	preferred	67.0	34.0		30.27035549993161	0.04535030003171414
7	25.975474399980158	stim	54		2	unambiguous	right	preferred	67.0	34.0		30.315705799963325	0.03655379998963326
7	26.01202819996979	stim	55		2	unambiguous	right	preferred	67.0	34.0		30.35225959995296	0.03307090001180768
7	26.0450990999816	stim	56		2	unambiguous	right	preferred	67.0	34.0		30.385330499964766	0.03397190000396222
7	26.07907099998556	stim	57		2	unambiguous	right	preferred	67.0	34.0		30.41930239996873	0.033277399954386055
7	26.112348399939947	stim	58		2	unambiguous	right	preferred	67.0	34.0		30.452579799923114	0.03466060000937432
7	26.14700899994932	stim	59		2	unambiguous	right	preferred	67.0	34.0		30.48724039993249	0.03156720008701086
7	26.178576200036332	stim	60		2	unambiguous	right	preferred	67.0	34.0		30.5188076000195	0.03338499995879829
7	26.21196119999513	stim	61		2	unambiguous	right	preferred	67.0	34.0		30.552192599978298	0.033219599979929626
7	26.24518079997506	stim	62		2	unambiguous	right	preferred	67.0	34.0		30.585412199958228	0.03215480002108961
7	26.27733559999615	stim	63		2	unambiguous	right	preferred	67.0	34.0		30.617566999979317	0.03464159998111427
7	26.311977199977264	stim	64		2	unambiguous	right	preferred	67.0	34.0		30.65220859996043	0.03360009996686131
7	26.345577299944125	stim	65		2	unambiguous	right	preferred	67.0	34.0		30.685808699927293	0.03302360000088811
7	26.378600899945013	stim	66		2	unambiguous	right	preferred	67.0	34.0		30.71883229992818	0.03323230007663369
8	26.411833200021647	stim	0		2	unambiguous	left	preferred	68.0	101.0		30.752064600004815	0.03387199994176626
8	26.445705199963413	stim	1		2	unambiguous	left	preferred	68.0	101.0		30.78593659994658	0.049625699990428984
8	26.495330899953842	stim	2		2	unambiguous	left	preferred	68.0	101.0		30.83556229993701	0.032388900057412684
8	26.527719800011255	stim	3		2	unambiguous	left	preferred	68.0	101.0		30.867951199994422	0.03466190001927316
8	26.562381700030528	stim	4		2	unambiguous	left	preferred	68.0	101.0		30.902613100013696	0.03282039996702224
8	26.59520209999755	stim	5		2	unambiguous	left	preferred	68.0	101.0		30.935433499980718	0.03341349994298071
8	26.62861559994053	stim	6		2	unambiguous	left	preferred	68.0	101.0		30.9688469999237	0.033216900075785816
8	26.661832500016317	stim	7		2	unambiguous	left	preferred	68.0	101.0		31.002063899999484	0.033401799970306456
8	26.695234299986623	stim	8		2	unambiguous	left	preferred	68.0	101.0		31.03546569996979	0.03372119995765388
8	26.728955499944277	stim	9		2	unambiguous	left	preferred	68.0	101.0		31.069186899927445	0.03326930000912398
8	26.7622247999534	stim	10		2	unambiguous	left	preferred	68.0	101.0		31.10245619993657	0.03327710006851703
8	26.795501900021918	stim	11		2	unambiguous	left	preferred	68.0	101.0		31.135733300005086	0.03304120001848787
8	26.828543100040406	stim	12		2	unambiguous	left	preferred	68.0	101.0		31.168774500023574	0.03286479995585978
8	26.861407899996266	stim	13		2	unambiguous	left	preferred	68.0	101.0		31.201639299979433	0.033760600024834275
8	26.8951685000211	stim	14		2	unambiguous	left	preferred	68.0	101.0		31.235399900004268	0.0337177999317646
8	26.928886299952865	stim	15		2	unambiguous	left	preferred	68.0	101.0		31.269117699936032	0.03351199999451637
8	26.96239829994738	stim	16		2	unambiguous	left	preferred	68.0	101.0		31.30262969993055	0.034602400031872094
8	26.997000699979253	stim	17		2	unambiguous	left	preferred	68.0	101.0		31.33723209996242	0.03177020000293851
8	27.02877089998219	stim	18		2	unambiguous	left	preferred	68.0	101.0		31.36900229996536	0.03334159997757524
8	27.062112499959767	stim	19		2	unambiguous	left	preferred	68.0	101.0		31.402343899942935	0.03335849998984486
8	27.09547099994961	stim	20		2	unambiguous	left	preferred	68.0	101.0		31.43570239993278	0.03355530009139329
8	27.129026300041005	stim	21		2	unambiguous	left	preferred	68.0	101.0		31.469257700024173	0.033787099993787706
8	27.162813400034793	stim	22		2	unambiguous	left	preferred	68.0	101.0		31.50304480001796	0.03290200000628829
8	27.19571540004108	stim	23		2	unambiguous	left	preferred	68.0	101.0		31.53594680002425	0.03326089994516224
8	27.228976299986243	stim	24		2	unambiguous	left	preferred	68.0	101.0		31.56920769996941	0.033329300000332296
8	27.262305599986576	stim	25		2	unambiguous	left	preferred	68.0	101.0		31.602536999969743	0.03353000001516193
8	27.295835600001737	stim	26		2	unambiguous	left	preferred	68.0	101.0		31.636066999984905	0.033532500034198165
8	27.329368100035936	stim	27		2	unambiguous	left	preferred	68.0	101.0		31.669599500019103	0.03420409990940243
8	27.363572199945338	stim	28		2	unambiguous	left	preferred	68.0	101.0		31.703803599928506	0.032736800028942525
8	27.39630899997428	stim	29		2	unambiguous	left	preferred	68.0	101.0		31.73654039995745	0.03412610001396388
8	27.430435099988244	stim	30		2	unambiguous	left	preferred	68.0	101.0		31.770666499971412	0.03246609994675964
8	27.462901199935004	stim	31		2	unambiguous	left	preferred	68.0	101.0		31.80313259991817	0.03374550002627075
8	27.496646699961275	stim	32		2	unambiguous	left	preferred	68.0	101.0		31.836878099944443	0.03341530007310212
8	27.530062000034377	stim	33		2	unambiguous	left	preferred	68.0	101.0		31.870293400017545	0.03436759999021888
8	27.564429600024596	stim	34		2	unambiguous	left	preferred	68.0	101.0		31.904661000007764	0.032483299961313605
8	27.59691289998591	stim	35		2	unambiguous	left	preferred	68.0	101.0		31.937144299969077	0.033284900011494756
8	27.630197799997404	stim	36		2	unambiguous	left	preferred	68.0	101.0		31.970429199980572	0.033320499933324754
8	27.66351829993073	stim	37		2	unambiguous	left	preferred	68.0	101.0		32.0037496999139	0.03331960004288703
8	27.696837899973616	stim	38		2	unambiguous	left	preferred	68.0	101.0		32.037069299956784	0.03345460002310574
8	27.73029249999672	stim	39		2	unambiguous	left	preferred	68.0	101.0		32.07052389997989	0.0339356999611482
8	27.76422819995787	stim	40		2	unambiguous	left	preferred	68.0	101.0		32.10445959994104	0.032969700056128204
8	27.797197900013998	stim	41		2	unambiguous	left	preferred	68.0	101.0		32.137429299997166	0.033271900028921664
8	27.83046980004292	stim	42		2	unambiguous	left	preferred	68.0	101.0		32.17070120002609	0.03318149992264807
8	27.863651299965568	stim	43		2	unambiguous	left	preferred	68.0	101.0		32.203882699948736	0.03341909998562187
8	27.89707039995119	stim	44		2	unambiguous	left	preferred	68.0	101.0		32.23730179993436	0.033616500091739
8	27.93068690004293	stim	45		2	unambiguous	left	preferred	68.0	101.0		32.270918300026096	0.033835899899713695
8	27.964522799942642	stim	46		2	unambiguous	left	preferred	68.0	101.0		32.30475419992581	0.0331809000344947
8	27.997703699977137	stim	47		2	unambiguous	left	preferred	68.0	101.0		32.337935099960305	0.03326299996115267
8	28.03096669993829	stim	48		2	unambiguous	left	preferred	68.0	101.0		32.37119809992146	0.033268600003793836
8	28.064235299942084	stim	49		2	unambiguous	left	preferred	68.0	101.0		32.40446669992525	0.033335300046019256
8	28.097570599988103	stim	50		2	unambiguous	left	preferred	68.0	101.0		32.43780199997127	0.03338040004018694
8	28.13095100002829	stim	51		2	unambiguous	left	preferred	68.0	101.0		32.47118240001146	0.03370219992939383
8	28.164653199957684	stim	52		2	unambiguous	left	preferred	68.0	101.0		32.50488459994085	0.03341680008452386
8	28.198070000042208	stim	53		2	unambiguous	left	preferred	68.0	101.0		32.538301400025375	0.03290459990967065
8	28.230974599951878	stim	54		2	unambiguous	left	preferred	68.0	101.0		32.571205999935046	0.03325480001512915
8	28.264229399967007	stim	55		2	unambiguous	left	preferred	68.0	101.0		32.604460799950175	0.03334179997909814
8	28.297571199946105	stim	56		2	unambiguous	left	preferred	68.0	101.0		32.63780259992927	0.03348320000804961
8	28.331054399954155	stim	57		2	unambiguous	left	preferred	68.0	101.0		32.67128579993732	0.03325920004863292
8	28.364313600002788	stim	58		2	unambiguous	left	preferred	68.0	101.0		32.704544999985956	0.03385020000860095
8	28.39816380001139	stim	59		2	unambiguous	left	preferred	68.0	101.0		32.73839519999456	0.03320149995852262
8	28.43136529996991	stim	60		2	unambiguous	left	preferred	68.0	101.0		32.77159669995308	0.03330620005726814
8	28.46467150002718	stim	61		2	unambiguous	left	preferred	68.0	101.0		32.80490290001035	0.033283299999311566
8	28.49795480002649	stim	62		2	unambiguous	left	preferred	68.0	101.0		32.83818620000966	0.03393049992155284
8	28.531885299948044	stim	63		2	unambiguous	left	preferred	68.0	101.0		32.87211669993121	0.03332630009390414
8	28.56521160004195	stim	64		2	unambiguous	left	preferred	68.0	101.0		32.905443000025116	0.03439669997896999
8	28.59960830002092	stim	65		2	unambiguous	left	preferred	68.0	101.0		32.939839700004086	0.0328739999094978
8	28.632482299930416	stim	66		2	unambiguous	left	preferred	68.0	101.0		32.972713699913584	0.03331830003298819
8	28.665800599963404	stim	67		2	unambiguous	left	preferred	68.0	101.0		33.00603199994657	0.03347120003309101
9	28.699271799996495	stim	0		2	unambiguous	right	preferred	46.0	169.0		33.03950319997966	0.033150300034321845
9	28.732422100030817	stim	1		2	unambiguous	right	preferred	46.0	169.0		33.072653500013985	0.03371230000630021
9	28.766134400037117	stim	2		2	unambiguous	right	preferred	46.0	169.0		33.106365800020285	0.033738199970684946
9	28.799872600007802	stim	3		2	unambiguous	right	preferred	46.0	169.0		33.14010399999097	0.03301629994530231
9	28.832888899953105	stim	4		2	unambiguous	right	preferred	46.0	169.0		33.17312029993627	0.033336900058202446
9	28.866225800011307	stim	5		2	unambiguous	right	preferred	46.0	169.0		33.206457199994475	0.03373040002770722
9	28.899956200039014	stim	6		2	unambiguous	right	preferred	46.0	169.0		33.24018760002218	0.033259499934501946
9	28.933215699973516	stim	7		2	unambiguous	right	preferred	46.0	169.0		33.273447099956684	0.03332879999652505
9	28.96654449997004	stim	8		2	unambiguous	right	preferred	46.0	169.0		33.30677589995321	0.03370689996518195
9	29.000251399935223	stim	9		2	unambiguous	right	preferred	46.0	169.0		33.34048279991839	0.0334533000132069
9	29.03370469994843	stim	10		2	unambiguous	right	preferred	46.0	169.0		33.3739360999316	0.03317920002155006
9	29.06688389996998	stim	11		2	unambiguous	right	preferred	46.0	169.0		33.40711529995315	0.03328099998179823
9	29.10016489995178	stim	12		2	unambiguous	right	preferred	46.0	169.0		33.440396299934946	0.03359140001703054
9	29.13375629996881	stim	13		2	unambiguous	right	preferred	46.0	169.0		33.47398769995198	0.03333290002774447
9	29.167089199996553	stim	14		2	unambiguous	right	preferred	46.0	169.0		33.50732059997972	0.03349649999290705
9	29.20058569998946	stim	15		2	unambiguous	right	preferred	46.0	169.0		33.54081709997263	0.033979799947701395
9	29.234565499937162	stim	16		2	unambiguous	right	preferred	46.0	169.0		33.57479689992033	0.032710400060750544
9	29.267275899997912	stim	17		2	unambiguous	right	preferred	46.0	169.0		33.60750729998108	0.03334630001336336
9	29.300622200011276	stim	18		2	unambiguous	right	preferred	46.0	169.0		33.64085359999444	0.033295199973508716
9	29.333917399984784	stim	19		2	unambiguous	right	preferred	46.0	169.0		33.67414879996795	0.033286400022916496
9	29.3672038000077	stim	20		2	unambiguous	right	preferred	46.0	169.0		33.70743519999087	0.034193299943581223
9	29.401397099951282	stim	21		2	unambiguous	right	preferred	46.0	169.0		33.74162849993445	0.03416999999899417
9	29.435567099950276	stim	22		2	unambiguous	right	preferred	46.0	169.0		33.775798499933444	0.032816900056786835
9	29.468384000007063	stim	23		2	unambiguous	right	preferred	46.0	169.0		33.80861539999023	0.03369720000773668
9	29.5020812000148	stim	24		2	unambiguous	right	preferred	46.0	169.0		33.84231259999797	0.033809399930760264
9	29.53589059994556	stim	25		2	unambiguous	right	preferred	46.0	169.0		33.87612199992873	0.033290900057181716
9	29.569181500002742	stim	26		2	unambiguous	right	preferred	46.0	169.0		33.90941289998591	0.032992899999953806
9	29.602174400002696	stim	27		2	unambiguous	right	preferred	46.0	169.0		33.94240579998586	0.033896700013428926
9	29.636071100016125	stim	28		2	unambiguous	right	preferred	46.0	169.0		33.97630249999929	0.03293689992278814
9	29.669007999938913	stim	29		2	unambiguous	right	preferred	46.0	169.0		34.00923939992208	0.03335430007427931
9	29.702362300013192	stim	30		2	unambiguous	right	preferred	46.0	169.0		34.04259369999636	0.03383410000242293
9	29.736196400015615	stim	31		2	unambiguous	right	preferred	46.0	169.0		34.07642779999878	0.03330759995151311
9	29.769503999967128	stim	32		2	unambiguous	right	preferred	46.0	169.0		34.109735399950296	0.033316200016997755
9	29.802820199984126	stim	33		2	unambiguous	right	preferred	46.0	169.0		34.14305159996729	0.033798899967223406
9	29.83661909995135	stim	34		2	unambiguous	right	preferred	46.0	169.0		34.17685049993452	0.033017100067809224
9	29.86963620001916	stim	35		2	unambiguous	right	preferred	46.0	169.0		34.209867600002326	0.033489199937321246
9	29.90312539995648	stim	36		2	unambiguous	right	preferred	46.0	169.0		34.24335679993965	0.03328570001758635
9	29.936411099974066	stim	37		2	unambiguous	right	preferred	46.0	169.0		34.276642499957234	0.03330889996141195
9	29.969719999935478	stim	38		2	unambiguous	right	preferred	46.0	169.0		34.309951399918646	0.03329200006555766
9	30.003012000001036	stim	39		2	unambiguous	right	preferred	46.0	169.0		34.3432433999842	0.03362220001872629
9	30.036634200019762	stim	40		2	unambiguous	right	preferred	46.0	169.0		34.37686560000293	0.0348971999483183
9	30.07153139996808	stim	41		2	unambiguous	right	preferred	46.0	169.0		34.41176279995125	0.03166450001299381
9	30.103195899981074	stim	42		2	unambiguous	right	preferred	46.0	169.0		34.44342729996424	0.033468900015577674
9	30.13666479999665	stim	43		2	unambiguous	right	preferred	46.0	169.0		34.47689619997982	0.033379300031811
9	30.170044100028463	stim	44		2	unambiguous	right	preferred	46.0	169.0		34.51027550001163	0.03320830001030117
9	30.203252400038764	stim	45		2	unambiguous	right	preferred	46.0	169.0		34.54348380002193	0.033513100002892315
0	30.236765500041656	stim	0		124	break	break	preferred	1.0	0.0		34.576996900024824	2.154910499928519
