trial_nr	onset	event_type	phase	response	nr_frames	block_type	trial_type	response_hand	phase_length	last_frame	key_duration	onset_abs	duration
0	0.016074800048954785	stim	0		0	break	break	preferred	1.0	0.0		30.501816300093196	28.843383400002494
0	28.85945820005145	break	0	space	0	break	break	preferred	1.0	0.0	0.07908399996813387	59.34519970009569	0.2672271999763325
0	29.12668540002778	break	0	space	119	break	break	preferred	1.0	0.0	0.07388519996311516	59.61242690007202	-27.040487300022505
1	2.0861981000052765	stim	0		2	unambiguous	right	preferred	70.0	0.0		32.57193960004952	0.05064410006161779
1	2.1368422000668943	stim	1		2	unambiguous	right	preferred	70.0	0.0		32.622583700111136	0.03280369995627552
1	2.16964590002317	stim	2		2	unambiguous	right	preferred	70.0	0.0		32.65538740006741	0.033673500060103834
1	2.2033194000832736	stim	3		2	unambiguous	right	preferred	70.0	0.0		32.689060900127515	0.03318299993406981
1	2.2365024000173435	stim	4		2	unambiguous	right	preferred	70.0	0.0		32.722243900061585	0.033468700014054775
1	2.2699711000313982	stim	5		2	unambiguous	right	preferred	70.0	0.0		32.75571260007564	0.03328860003966838
1	2.3032597000710666	stim	6		2	unambiguous	right	preferred	70.0	0.0		32.78900120011531	0.03369119996204972
1	2.3369509000331163	stim	7		2	unambiguous	right	preferred	70.0	0.0		32.82269240007736	0.03328910004347563
1	2.370240000076592	stim	8		2	unambiguous	right	preferred	70.0	0.0		32.85598150012083	0.03330769995227456
1	2.4035477000288665	stim	9		2	unambiguous	right	preferred	70.0	0.0		32.88928920007311	0.033387199975550175
1	2.4369349000044167	stim	10		2	unambiguous	right	preferred	70.0	0.0		32.92267640004866	0.03334500000346452
1	2.4702799000078812	stim	11		2	unambiguous	right	preferred	70.0	0.0		32.95602140005212	0.033416899968869984
1	2.503696799976751	stim	12		2	unambiguous	right	preferred	70.0	0.0		32.98943830002099	0.033588799997232854
1	2.537285599973984	stim	13		2	unambiguous	right	preferred	70.0	0.0		33.023027100018226	0.03326910000760108
1	2.570554699981585	stim	14		2	unambiguous	right	preferred	70.0	0.0		33.05629620002583	0.033437600010074675
1	2.60399229999166	stim	15		2	unambiguous	right	preferred	70.0	0.0		33.0897338000359	0.03348290000576526
1	2.637475199997425	stim	16		2	unambiguous	right	preferred	70.0	0.0		33.12321670004167	0.033691100077703595
1	2.6711663000751287	stim	17		2	unambiguous	right	preferred	70.0	0.0		33.15690780011937	0.03335729998070747
1	2.704523600055836	stim	18		2	unambiguous	right	preferred	70.0	0.0		33.19026510010008	0.03385320003144443
1	2.7383768000872806	stim	19		2	unambiguous	right	preferred	70.0	0.0		33.22411830013152	0.03348169999662787
1	2.7718585000839084	stim	20		2	unambiguous	right	preferred	70.0	0.0		33.25760000012815	0.033081999979913235
1	2.8049405000638217	stim	21		2	unambiguous	right	preferred	70.0	0.0		33.29068200010806	0.033323599956929684
1	2.8382641000207514	stim	22		2	unambiguous	right	preferred	70.0	0.0		33.32400560006499	0.03338380006607622
1	2.8716479000868276	stim	23		2	unambiguous	right	preferred	70.0	0.0		33.35738940013107	0.033254899899475276
1	2.904902799986303	stim	24		2	unambiguous	right	preferred	70.0	0.0		33.390644300030544	0.033344199997372925
1	2.9382469999836758	stim	25		2	unambiguous	right	preferred	70.0	0.0		33.42398850002792	0.03363660001195967
1	2.9718835999956354	stim	26		2	unambiguous	right	preferred	70.0	0.0		33.45762510003988	0.03317750000860542
1	3.005061100004241	stim	27		2	unambiguous	right	preferred	70.0	0.0		33.49080260004848	0.03359880007337779
1	3.0386599000776187	stim	28		2	unambiguous	right	preferred	70.0	0.0		33.52440140012186	0.033646499970927835
1	3.0723064000485465	stim	29		2	unambiguous	right	preferred	70.0	0.0		33.55804790009279	0.03300269995816052
1	3.105309100006707	stim	30		2	unambiguous	right	preferred	70.0	0.0		33.59105060005095	0.03355649998411536
1	3.1388655999908224	stim	31		2	unambiguous	right	preferred	70.0	0.0		33.624607100035064	0.03352440008893609
1	3.1723900000797585	stim	32		2	unambiguous	right	preferred	70.0	0.0		33.658131500124	0.03309339995030314
1	3.2054834000300616	stim	33		2	unambiguous	right	preferred	70.0	0.0		33.6912249000743	0.03331500000786036
1	3.238798400037922	stim	34		2	unambiguous	right	preferred	70.0	0.0		33.72453990008216	0.03333310002926737
1	3.2721315000671893	stim	35		2	unambiguous	right	preferred	70.0	0.0		33.75787300011143	0.03331129997968674
1	3.305442800046876	stim	36		2	unambiguous	right	preferred	70.0	0.0		33.79118430009112	0.03337560000363737
1	3.3388184000505134	stim	37		2	unambiguous	right	preferred	70.0	0.0		33.824559900094755	0.03332259994931519
1	3.3721409999998286	stim	38		2	unambiguous	right	preferred	70.0	0.0		33.85788250004407	0.033917900058440864
1	3.4060589000582695	stim	39		2	unambiguous	right	preferred	70.0	0.0		33.89180040010251	0.03311909991316497
1	3.4391779999714345	stim	40		2	unambiguous	right	preferred	70.0	0.0		33.924919500015676	0.03328570001758635
1	3.472463699989021	stim	41		2	unambiguous	right	preferred	70.0	0.0		33.95820520003326	0.03333800006657839
1	3.505801700055599	stim	42		2	unambiguous	right	preferred	70.0	0.0		33.99154320009984	0.03370439994614571
1	3.539506100001745	stim	43		2	unambiguous	right	preferred	70.0	0.0		34.02524760004599	0.033129399991594255
1	3.572635499993339	stim	44		2	unambiguous	right	preferred	70.0	0.0		34.05837700003758	0.03415219997987151
1	3.6067876999732107	stim	45		2	unambiguous	right	preferred	70.0	0.0		34.09252920001745	0.033070300007238984
1	3.6398579999804497	stim	46		2	unambiguous	right	preferred	70.0	0.0		34.12559950002469	0.03331250010523945
1	3.673170500085689	stim	47		2	unambiguous	right	preferred	70.0	0.0		34.15891200012993	0.03334579989314079
1	3.70651629997883	stim	48		2	unambiguous	right	preferred	70.0	0.0		34.19225780002307	0.03331990004517138
1	3.7398362000240013	stim	49		2	unambiguous	right	preferred	70.0	0.0		34.22557770006824	0.03332719998434186
1	3.773163400008343	stim	50		2	unambiguous	right	preferred	70.0	0.0		34.258904900052585	0.0503079000627622
1	3.8234713000711054	stim	51		2	unambiguous	right	preferred	70.0	0.0		34.30921280011535	0.033624099916778505
1	3.857095399987884	stim	52		2	unambiguous	right	preferred	70.0	0.0		34.342836900032125	0.03340990003198385
1	3.8905053000198677	stim	53		2	unambiguous	right	preferred	70.0	0.0		34.37624680006411	0.033738199970684946
1	3.9242434999905527	stim	54		2	unambiguous	right	preferred	70.0	0.0		34.409985000034794	0.033652500016614795
1	3.9578960000071675	stim	55		2	unambiguous	right	preferred	70.0	0.0		34.44363750005141	0.05002299998886883
1	4.007918999996036	stim	56		2	unambiguous	right	preferred	70.0	0.0		34.49366050004028	0.03333880007266998
1	4.041257800068706	stim	57		2	unambiguous	right	preferred	70.0	0.0		34.52699930011295	0.05028429999947548
1	4.091542100068182	stim	58		2	unambiguous	right	preferred	70.0	0.0		34.57728360011242	0.03375359997153282
1	4.125295700039715	stim	59		2	unambiguous	right	preferred	70.0	0.0		34.611037200083956	0.03322240000125021
1	4.158518100040965	stim	60		2	unambiguous	right	preferred	70.0	0.0		34.644259600085206	0.03337309998460114
1	4.191891200025566	stim	61		2	unambiguous	right	preferred	70.0	0.0		34.67763270006981	0.03355060005560517
1	4.225441800081171	stim	62		2	unambiguous	right	preferred	70.0	0.0		34.71118330012541	0.03338789998088032
1	4.258829700062051	stim	63		2	unambiguous	right	preferred	70.0	0.0		34.74457120010629	0.05001000000629574
1	4.308839700068347	stim	64		2	unambiguous	right	preferred	70.0	0.0		34.79458120011259	0.03328669990878552
1	4.342126399977133	stim	65		2	unambiguous	right	preferred	70.0	0.0		34.827867900021374	0.03335270006209612
1	4.375479100039229	stim	66		2	unambiguous	right	preferred	70.0	0.0		34.86122060008347	0.03346539998892695
1	4.408944500028156	stim	67		2	unambiguous	right	preferred	70.0	0.0		34.8946860000724	0.03355940000619739
1	4.442503900034353	stim	68		2	unambiguous	right	preferred	70.0	0.0		34.928245400078595	0.03336310002487153
1	4.475867000059225	stim	69		2	unambiguous	right	preferred	70.0	0.0		34.961608500103466	0.033575600013136864
2	4.5094426000723615	stim	0		2	unambiguous	left	preferred	71.0	70.0		34.9951841001166	0.03328089998103678
2	4.542723500053398	stim	1		2	unambiguous	left	preferred	71.0	70.0		35.02846500009764	0.033364999922923744
2	4.576088499976322	stim	2		2	unambiguous	left	preferred	71.0	70.0		35.061830000020564	0.03380430000834167
2	4.609892799984664	stim	3		2	unambiguous	left	preferred	71.0	70.0		35.095634300028905	0.034062799997627735
2	4.6439555999822915	stim	4		2	unambiguous	left	preferred	71.0	70.0		35.12969710002653	0.03290950006339699
2	4.6768651000456885	stim	5		2	unambiguous	left	preferred	71.0	70.0		35.16260660008993	0.05002900003455579
2	4.726894100080244	stim	6		2	unambiguous	left	preferred	71.0	70.0		35.212635600124486	0.03366919991094619
2	4.76056329999119	stim	7		2	unambiguous	left	preferred	71.0	70.0		35.24630480003543	0.033245300059206784
2	4.793808600050397	stim	8		2	unambiguous	left	preferred	71.0	70.0		35.27955010009464	0.03349319996777922
2	4.827301800018176	stim	9		2	unambiguous	left	preferred	71.0	70.0		35.31304330006242	0.03310929995495826
2	4.860411099973135	stim	10		2	unambiguous	left	preferred	71.0	70.0		35.346152600017376	0.0333909000037238
2	4.8938019999768585	stim	11		2	unambiguous	left	preferred	71.0	70.0		35.3795435000211	0.0336403000401333
2	4.927442300016992	stim	12		2	unambiguous	left	preferred	71.0	70.0		35.41318380006123	0.033408000017516315
2	4.960850300034508	stim	13		2	unambiguous	left	preferred	71.0	70.0		35.44659180007875	0.033323599956929684
2	4.994173899991438	stim	14		0	unambiguous	left	preferred	71.0	70.0		35.47991540003568	27.28946200001519
2	32.28363590000663	left	14	j	2	unambiguous	left	preferred	71.0	70.0	1.8512063999660313	62.76937740005087	-27.23928049998358
2	5.044355400023051	stim	15		2	unambiguous	left	preferred	71.0	70.0		35.53009690006729	0.03373779996763915
2	5.07809319999069	stim	16		2	unambiguous	left	preferred	71.0	70.0		35.56383470003493	0.03334309998899698
2	5.111436299979687	stim	17		2	unambiguous	left	preferred	71.0	70.0		35.59717780002393	0.03314499999396503
2	5.144581299973652	stim	18		2	unambiguous	left	preferred	71.0	70.0		35.63032280001789	0.033574000000953674
2	5.178155299974605	stim	19		2	unambiguous	left	preferred	71.0	70.0		35.66389680001885	0.03348540002480149
2	5.211640699999407	stim	20		2	unambiguous	left	preferred	71.0	70.0		35.69738220004365	0.03383550001308322
2	5.24547620001249	stim	21		2	unambiguous	left	preferred	71.0	70.0		35.73121770005673	0.033347200020216405
2	5.278823400032707	stim	22		2	unambiguous	left	preferred	71.0	70.0		35.76456490007695	0.03346940001938492
2	5.3122928000520915	stim	23		2	unambiguous	left	preferred	71.0	70.0		35.79803430009633	0.033433199976570904
2	5.345726000028662	stim	24		2	unambiguous	left	preferred	71.0	70.0		35.831467500072904	0.03339810005854815
2	5.3791241000872105	stim	25		2	unambiguous	left	preferred	71.0	70.0		35.86486560013145	0.033289299928583205
2	5.412413400015794	stim	26		2	unambiguous	left	preferred	71.0	70.0		35.898154900060035	0.033674800070002675
2	5.446088200085796	stim	27		2	unambiguous	left	preferred	71.0	70.0		35.93182970013004	0.03313109988812357
2	5.47921929997392	stim	28		2	unambiguous	left	preferred	71.0	70.0		35.96496080001816	0.0333913000067696
2	5.51261059998069	stim	29		2	unambiguous	left	preferred	71.0	70.0		35.99835210002493	0.03338230005465448
2	5.545992900035344	stim	30		2	unambiguous	left	preferred	71.0	70.0		36.031734400079586	0.03360099997371435
2	5.579593900009058	stim	31		2	unambiguous	left	preferred	71.0	70.0		36.0653354000533	0.033236099989153445
2	5.612829999998212	stim	32		2	unambiguous	left	preferred	71.0	70.0		36.09857150004245	0.03341220004949719
2	5.646242200047709	stim	33		2	unambiguous	left	preferred	71.0	70.0		36.13198370009195	0.03354089998174459
2	5.679783100029454	stim	34		2	unambiguous	left	preferred	71.0	70.0		36.165524600073695	0.033535300055518746
2	5.713318400084972	stim	35		2	unambiguous	left	preferred	71.0	70.0		36.199059900129214	0.03370779997203499
2	5.747026200057007	stim	36		2	unambiguous	left	preferred	71.0	70.0		36.23276770010125	0.03335029992740601
2	5.780376499984413	stim	37		2	unambiguous	left	preferred	71.0	70.0		36.266118000028655	0.03336780006065965
2	5.813744300045073	stim	38		2	unambiguous	left	preferred	71.0	70.0		36.299485800089315	0.033483700011856854
2	5.84722800005693	stim	39		2	unambiguous	left	preferred	71.0	70.0		36.33296950010117	0.033320399932563305
2	5.880548399989493	stim	40		2	unambiguous	left	preferred	71.0	70.0		36.366289900033735	0.03333310002926737
2	5.913881500018761	stim	41		2	unambiguous	left	preferred	71.0	70.0		36.399623000063	0.033277499955147505
2	5.947158999973908	stim	42		2	unambiguous	left	preferred	71.0	70.0		36.43290050001815	0.033353300066664815
2	5.980512300040573	stim	43		2	unambiguous	left	preferred	71.0	70.0		36.466253800084814	0.033573699998669326
2	6.014086000039242	stim	44		2	unambiguous	left	preferred	71.0	70.0		36.499827500083484	0.03321419993881136
2	6.047300199978054	stim	45		2	unambiguous	left	preferred	71.0	70.0		36.533041700022295	0.03351850004401058
2	6.080818700022064	stim	46		2	unambiguous	left	preferred	71.0	70.0		36.566560200066306	0.03329459996894002
2	6.114113299991004	stim	47		2	unambiguous	left	preferred	71.0	70.0		36.599854800035246	0.03301350004039705
2	6.147126800031401	stim	48		2	unambiguous	left	preferred	71.0	70.0		36.63286830007564	0.03332429996225983
2	6.180451099993661	stim	49		2	unambiguous	left	preferred	71.0	70.0		36.6661926000379	0.05009889998473227
2	6.230549999978393	stim	50		2	unambiguous	left	preferred	71.0	70.0		36.716291500022635	0.033492800081148744
2	6.264042800059542	stim	51		2	unambiguous	left	preferred	71.0	70.0		36.749784300103784	0.0336244999198243
2	6.297667299979366	stim	52		2	unambiguous	left	preferred	71.0	70.0		36.78340880002361	0.03319680003914982
2	6.330864100018516	stim	53		2	unambiguous	left	preferred	71.0	70.0		36.81660560006276	0.03330260002985597
2	6.364166700048372	stim	54		2	unambiguous	left	preferred	71.0	70.0		36.849908200092614	0.03365859994664788
2	6.39782529999502	stim	55		2	unambiguous	left	preferred	71.0	70.0		36.88356680003926	0.03356410004198551
2	6.4313894000370055	stim	56		2	unambiguous	left	preferred	71.0	70.0		36.91713090008125	0.03300749999471009
2	6.464396900031716	stim	57		2	unambiguous	left	preferred	71.0	70.0		36.95013840007596	0.03340860002208501
2	6.497805500053801	stim	58		2	unambiguous	left	preferred	71.0	70.0		36.98354700009804	0.05026359995827079
2	6.548069100012071	stim	59		2	unambiguous	left	preferred	71.0	70.0		37.03381060005631	0.03346599999349564
2	6.581535100005567	stim	60		2	unambiguous	left	preferred	71.0	70.0		37.06727660004981	0.03342810005415231
2	6.614963200059719	stim	61		2	unambiguous	left	preferred	71.0	70.0		37.10070470010396	0.03328700002748519
2	6.648250200087205	stim	62		2	unambiguous	left	preferred	71.0	70.0		37.133991700131446	0.049958799965679646
2	6.698209000052884	stim	63		2	unambiguous	left	preferred	71.0	70.0		37.183950500097126	0.03369329997804016
2	6.731902300030924	stim	64		2	unambiguous	left	preferred	71.0	70.0		37.217643800075166	0.0331418999703601
2	6.7650442000012845	stim	65		2	unambiguous	left	preferred	71.0	70.0		37.250785700045526	0.03331049997359514
2	6.79835469997488	stim	66		2	unambiguous	left	preferred	71.0	70.0		37.28409620001912	0.0333049000473693
2	6.831659600022249	stim	67		2	unambiguous	left	preferred	71.0	70.0		37.31740110006649	0.03338469995651394
2	6.865044299978763	stim	68		2	unambiguous	left	preferred	71.0	70.0		37.350785800023004	0.03352700010873377
2	6.898571300087497	stim	69		2	unambiguous	left	preferred	71.0	70.0		37.38431280013174	0.03356699994765222
2	6.932138300035149	stim	70		2	unambiguous	left	preferred	71.0	70.0		37.41787980007939	0.03338239993900061
3	6.9655206999741495	stim	0		2	unambiguous	right	preferred	71.0	141.0		37.45126220001839	0.03328860003966838
3	6.998809300013818	stim	1		2	unambiguous	right	preferred	71.0	141.0		37.48455080005806	0.033652600017376244
3	7.032461900031194	stim	2		2	unambiguous	right	preferred	71.0	141.0		37.518203400075436	0.03379569994285703
3	7.066257599974051	stim	3		2	unambiguous	right	preferred	71.0	141.0		37.55199910001829	0.04965940001420677
3	7.115916999988258	stim	4		2	unambiguous	right	preferred	71.0	141.0		37.6016585000325	0.033770899986848235
3	7.149687899975106	stim	5		2	unambiguous	right	preferred	71.0	141.0		37.63542940001935	0.03317710000555962
3	7.182864999980666	stim	6		2	unambiguous	right	preferred	71.0	141.0		37.66860650002491	0.03339980007149279
3	7.2162648000521585	stim	7		2	unambiguous	right	preferred	71.0	141.0		37.7020063000964	0.033910199999809265
3	7.250175000051968	stim	8		2	unambiguous	right	preferred	71.0	141.0		37.73591650009621	0.033342799986712635
3	7.28351780003868	stim	9		2	unambiguous	right	preferred	71.0	141.0		37.76925930008292	0.035180200007744133
3	7.318698000046425	stim	10		2	unambiguous	right	preferred	71.0	141.0		37.804439500090666	0.03177430003415793
3	7.3504723000805825	stim	11		2	unambiguous	right	preferred	71.0	141.0		37.836213800124824	0.033298299997113645
3	7.383770600077696	stim	12		2	unambiguous	right	preferred	71.0	141.0		37.86951210012194	0.03330159990582615
3	7.417072199983522	stim	13		0	unambiguous	right	preferred	71.0	141.0		37.902813700027764	26.94941070000641
3	34.36648289998993	right	13	f	2	unambiguous	right	preferred	71.0	141.0	2.1837586000328884	64.85222440003417	-26.897758799954318
3	7.468724100035615	stim	14		2	unambiguous	right	preferred	71.0	141.0		37.95446560007986	0.033338199951685965
3	7.502062299987301	stim	15		2	unambiguous	right	preferred	71.0	141.0		37.98780380003154	0.0340753000928089
3	7.53613760008011	stim	16		2	unambiguous	right	preferred	71.0	141.0		38.02187910012435	0.03318189992569387
3	7.569319500005804	stim	17		2	unambiguous	right	preferred	71.0	141.0		38.055061000050046	0.03370909998193383
3	7.603028599987738	stim	18		2	unambiguous	right	preferred	71.0	141.0		38.08877010003198	0.03277719998732209
3	7.63580579997506	stim	19		2	unambiguous	right	preferred	71.0	141.0		38.1215473000193	0.033353500068187714
3	7.669159300043248	stim	20		2	unambiguous	right	preferred	71.0	141.0		38.15490080008749	0.03336849994957447
3	7.702527799992822	stim	21		2	unambiguous	right	preferred	71.0	141.0		38.188269300037064	0.033470100024715066
3	7.735997900017537	stim	22		2	unambiguous	right	preferred	71.0	141.0		38.22173940006178	0.03377580002415925
3	7.769773700041696	stim	23		2	unambiguous	right	preferred	71.0	141.0		38.25551520008594	0.03330949996598065
3	7.803083200007677	stim	24		2	unambiguous	right	preferred	71.0	141.0		38.28882470005192	0.03289210004732013
3	7.835975300054997	stim	25		2	unambiguous	right	preferred	71.0	141.0		38.32171680009924	0.033762099919840693
3	7.869737399974838	stim	26		2	unambiguous	right	preferred	71.0	141.0		38.35547890001908	0.03308840002864599
3	7.902825800003484	stim	27		2	unambiguous	right	preferred	71.0	141.0		38.388567300047725	0.03370620007626712
3	7.936532000079751	stim	28		2	unambiguous	right	preferred	71.0	141.0		38.42227350012399	0.03305309999268502
3	7.969585100072436	stim	29		2	unambiguous	right	preferred	71.0	141.0		38.45532660011668	0.03430519998073578
3	8.003890300053172	stim	30		2	unambiguous	right	preferred	71.0	141.0		38.48963180009741	0.03209719993174076
3	8.035987499984913	stim	31		2	unambiguous	right	preferred	71.0	141.0		38.521729000029154	0.03350160003174096
3	8.069489100016654	stim	32		2	unambiguous	right	preferred	71.0	141.0		38.555230600060895	0.0332664999878034
3	8.102755600004457	stim	33		2	unambiguous	right	preferred	71.0	141.0		38.5884971000487	0.033459900063462555
3	8.13621550006792	stim	34		2	unambiguous	right	preferred	71.0	141.0		38.62195700011216	0.03332739998586476
3	8.169542900053784	stim	35		2	unambiguous	right	preferred	71.0	141.0		38.655284400098026	0.0498454999178648
3	8.219388399971649	stim	36		2	unambiguous	right	preferred	71.0	141.0		38.70512990001589	0.0335738001158461
3	8.252962200087495	stim	37		2	unambiguous	right	preferred	71.0	141.0		38.73870370013174	0.03316419990733266
3	8.286126399994828	stim	38		2	unambiguous	right	preferred	71.0	141.0		38.77186790003907	0.03354079998098314
3	8.319667199975811	stim	39		2	unambiguous	right	preferred	71.0	141.0		38.80540870002005	0.03334090008866042
3	8.353008100064471	stim	40		2	unambiguous	right	preferred	71.0	141.0		38.83874960010871	0.03370159992482513
3	8.386709699989296	stim	41		2	unambiguous	right	preferred	71.0	141.0		38.87245120003354	0.03330650005955249
3	8.420016200048849	stim	42		2	unambiguous	right	preferred	71.0	141.0		38.90575770009309	0.049942499957978725
3	8.469958700006828	stim	43		2	unambiguous	right	preferred	71.0	141.0		38.95570020005107	0.03379060002043843
3	8.503749300027266	stim	44		2	unambiguous	right	preferred	71.0	141.0		38.98949080007151	0.03338090004399419
3	8.53713020007126	stim	45		2	unambiguous	right	preferred	71.0	141.0		39.0228717001155	0.0333955999230966
3	8.570525799994357	stim	46		2	unambiguous	right	preferred	71.0	141.0		39.0562673000386	0.033403599984012544
3	8.60392939997837	stim	47		2	unambiguous	right	preferred	71.0	141.0		39.08967090002261	0.033218600088730454
3	8.6371480000671	stim	48		2	unambiguous	right	preferred	71.0	141.0		39.12288950011134	0.03341419994831085
3	8.67056220001541	stim	49		2	unambiguous	right	preferred	71.0	141.0		39.15630370005965	0.03331209998577833
3	8.70387430000119	stim	50		2	unambiguous	right	preferred	71.0	141.0		39.18961580004543	0.03336910007055849
3	8.737243400071748	stim	51		2	unambiguous	right	preferred	71.0	141.0		39.22298490011599	0.0334258999209851
3	8.770669299992733	stim	52		2	unambiguous	right	preferred	71.0	141.0		39.256410800036974	0.05017290008254349
3	8.820842200075276	stim	53		2	unambiguous	right	preferred	71.0	141.0		39.30658370011952	0.033342799986712635
3	8.854185000061989	stim	54		2	unambiguous	right	preferred	71.0	141.0		39.33992650010623	0.03333459992427379
3	8.887519599986263	stim	55		2	unambiguous	right	preferred	71.0	141.0		39.373261100030504	0.03366630000527948
3	8.921185899991542	stim	56		2	unambiguous	right	preferred	71.0	141.0		39.406927400035784	0.03298320004250854
3	8.95416910003405	stim	57		2	unambiguous	right	preferred	71.0	141.0		39.43991060007829	0.03342800005339086
3	8.987597100087442	stim	58		2	unambiguous	right	preferred	71.0	141.0		39.47333860013168	0.0336014999775216
3	9.021198600064963	stim	59		2	unambiguous	right	preferred	71.0	141.0		39.506940100109205	0.033142699976451695
3	9.054341300041415	stim	60		2	unambiguous	right	preferred	71.0	141.0		39.540082800085656	0.033846499980427325
3	9.088187800021842	stim	61		2	unambiguous	right	preferred	71.0	141.0		39.573929300066084	0.03332439996302128
3	9.121512199984863	stim	62		2	unambiguous	right	preferred	71.0	141.0		39.607253700029105	0.033457000041380525
3	9.154969200026244	stim	63		2	unambiguous	right	preferred	71.0	141.0		39.640710700070485	0.03328900004271418
3	9.188258200068958	stim	64		2	unambiguous	right	preferred	71.0	141.0		39.6739997001132	0.03348109999205917
3	9.221739300061017	stim	65		2	unambiguous	right	preferred	71.0	141.0		39.70748080010526	0.033295499975793064
3	9.25503480003681	stim	66		2	unambiguous	right	preferred	71.0	141.0		39.74077630008105	0.03332149994093925
3	9.28835629997775	stim	67		2	unambiguous	right	preferred	71.0	141.0		39.77409780002199	0.03324440005235374
3	9.321600700030103	stim	68		2	unambiguous	right	preferred	71.0	141.0		39.807342200074345	0.03338759997859597
3	9.3549883000087	stim	69		2	unambiguous	right	preferred	71.0	141.0		39.84072980005294	0.03327820007689297
3	9.388266500085592	stim	70		2	unambiguous	right	preferred	71.0	141.0		39.874008000129834	0.03343919990584254
4	9.421705699991435	stim	0		2	unambiguous	left	preferred	67.0	22.0		39.907447200035676	0.03379720007069409
4	9.455502900062129	stim	1		2	unambiguous	left	preferred	67.0	22.0		39.94124440010637	0.03333589993417263
4	9.488838799996302	stim	2		2	unambiguous	left	preferred	67.0	22.0		39.97458030004054	0.03333310002926737
4	9.522171900025569	stim	3		2	unambiguous	left	preferred	67.0	22.0		40.00791340006981	0.033603699994273484
4	9.555775600019842	stim	4		2	unambiguous	left	preferred	67.0	22.0		40.041517100064084	0.03326379996724427
4	9.589039399987087	stim	5		2	unambiguous	left	preferred	67.0	22.0		40.07478090003133	0.033489700057543814
4	9.62252910004463	stim	6		2	unambiguous	left	preferred	67.0	22.0		40.10827060008887	0.033121699932962656
4	9.655650799977593	stim	7		2	unambiguous	left	preferred	67.0	22.0		40.141392300021835	0.03342690004501492
4	9.689077700022608	stim	8		2	unambiguous	left	preferred	67.0	22.0		40.17481920006685	0.033611200051382184
4	9.72268890007399	stim	9		2	unambiguous	left	preferred	67.0	22.0		40.20843040011823	0.03329439996741712
4	9.755983300041407	stim	10		2	unambiguous	left	preferred	67.0	22.0		40.24172480008565	0.03376989997923374
4	9.789753200020641	stim	11		2	unambiguous	left	preferred	67.0	22.0		40.27549470006488	0.033443600055761635
4	9.823196800076403	stim	12		2	unambiguous	left	preferred	67.0	22.0		40.308938300120644	0.033410699921660125
4	9.856607499998063	stim	13		2	unambiguous	left	preferred	67.0	22.0		40.342349000042304	0.03339200001209974
4	9.889999500010163	stim	14		2	unambiguous	left	preferred	67.0	22.0		40.375741000054404	0.033160599996335804
4	9.923160100006498	stim	15		2	unambiguous	left	preferred	67.0	22.0		40.40890160005074	0.033465499989688396
4	9.956625599996187	stim	16		2	unambiguous	left	preferred	67.0	22.0		40.44236710004043	0.033437800011597574
4	9.990063400007784	stim	17		0	unambiguous	left	preferred	67.0	22.0		40.475804900052026	26.68132960004732
4	36.671393000055104	left	17	j	2	unambiguous	left	preferred	67.0	22.0	2.457582199946046	67.15713450009935	-26.631126400083303
4	10.040266599971801	stim	18		2	unambiguous	left	preferred	67.0	22.0		40.52600810001604	0.03323800000362098
4	10.073504599975422	stim	19		2	unambiguous	left	preferred	67.0	22.0		40.559246100019664	0.03345670003909618
4	10.106961300014518	stim	20		2	unambiguous	left	preferred	67.0	22.0		40.59270280005876	0.033261300064623356
4	10.140222600079142	stim	21		2	unambiguous	left	preferred	67.0	22.0		40.62596410012338	0.0332711999071762
4	10.173493799986318	stim	22		2	unambiguous	left	preferred	67.0	22.0		40.65923530003056	0.03326960001140833
4	10.206763399997726	stim	23		2	unambiguous	left	preferred	67.0	22.0		40.69250490004197	0.03338050004094839
4	10.240143900038674	stim	24		2	unambiguous	left	preferred	67.0	22.0		40.725885400082916	0.03379839996341616
4	10.27394230000209	stim	25		2	unambiguous	left	preferred	67.0	22.0		40.75968380004633	0.03387659997679293
4	10.307818899978884	stim	26		2	unambiguous	left	preferred	67.0	22.0		40.793560400023125	0.03355440008454025
4	10.341373300063424	stim	27		2	unambiguous	left	preferred	67.0	22.0		40.827114800107665	0.03347939997911453
4	10.374852700042538	stim	28		2	unambiguous	left	preferred	67.0	22.0		40.86059420008678	0.03339290001895279
4	10.408245600061491	stim	29		2	unambiguous	left	preferred	67.0	22.0		40.89398710010573	0.03317710000555962
4	10.44142270006705	stim	30		2	unambiguous	left	preferred	67.0	22.0		40.92716420011129	0.03370069991797209
4	10.475123399985023	stim	31		2	unambiguous	left	preferred	67.0	22.0		40.960864900029264	0.03337040008045733
4	10.50849380006548	stim	32		2	unambiguous	left	preferred	67.0	22.0		40.99423530010972	0.03342979995068163
4	10.541923600016162	stim	33		2	unambiguous	left	preferred	67.0	22.0		41.0276651000604	0.033240400021895766
4	10.575164000038058	stim	34		2	unambiguous	left	preferred	67.0	22.0		41.0609055000823	0.03331349999643862
4	10.608477500034496	stim	35		2	unambiguous	left	preferred	67.0	22.0		41.09421900007874	0.033659599954262376
4	10.642137099988759	stim	36		2	unambiguous	left	preferred	67.0	22.0		41.127878600033	0.03412690002005547
4	10.676264000008814	stim	37		2	unambiguous	left	preferred	67.0	22.0		41.162005500053056	0.03361609997227788
4	10.709880099981092	stim	38		2	unambiguous	left	preferred	67.0	22.0		41.19562160002533	0.033242900040932
4	10.743123000022024	stim	39		2	unambiguous	left	preferred	67.0	22.0		41.228864500066265	0.033444899949245155
4	10.776567899971269	stim	40		2	unambiguous	left	preferred	67.0	22.0		41.26230940001551	0.033351600053720176
4	10.80991950002499	stim	41		2	unambiguous	left	preferred	67.0	22.0		41.29566100006923	0.033788500004448
4	10.843708000029437	stim	42		2	unambiguous	left	preferred	67.0	22.0		41.32944950007368	0.0336088000331074
4	10.877316800062545	stim	43		2	unambiguous	left	preferred	67.0	22.0		41.363058300106786	0.03383650002069771
4	10.911153300083242	stim	44		2	unambiguous	left	preferred	67.0	22.0		41.396894800127484	0.03348449990153313
4	10.944637799984775	stim	45		2	unambiguous	left	preferred	67.0	22.0		41.43037930002902	0.03336440003477037
4	10.978002200019546	stim	46		2	unambiguous	left	preferred	67.0	22.0		41.46374370006379	0.033941500005312264
4	11.011943700024858	stim	47		2	unambiguous	left	preferred	67.0	22.0		41.4976852000691	0.03373350005131215
4	11.04567720007617	stim	48		2	unambiguous	left	preferred	67.0	22.0		41.53141870012041	0.033487999928183854
4	11.079165200004354	stim	49		2	unambiguous	left	preferred	67.0	22.0		41.564906700048596	0.033251099986955523
4	11.11241629999131	stim	50		2	unambiguous	left	preferred	67.0	22.0		41.59815780003555	0.033414100063964725
4	11.145830400055274	stim	51		2	unambiguous	left	preferred	67.0	22.0		41.631571900099516	0.033400299958884716
4	11.179230700014159	stim	52		2	unambiguous	left	preferred	67.0	22.0		41.6649722000584	0.03341160004492849
4	11.212642300059088	stim	53		2	unambiguous	left	preferred	67.0	22.0		41.69838380010333	0.0335276999976486
4	11.246170000056736	stim	54		2	unambiguous	left	preferred	67.0	22.0		41.73191150010098	0.033222600002773106
4	11.27939260005951	stim	55		2	unambiguous	left	preferred	67.0	22.0		41.76513410010375	0.03314539999701083
4	11.31253800005652	stim	56		2	unambiguous	left	preferred	67.0	22.0		41.79827950010076	0.033514600014314055
4	11.346052600070834	stim	57		2	unambiguous	left	preferred	67.0	22.0		41.831794100115076	0.033776499913074076
4	11.379829099983908	stim	58		2	unambiguous	left	preferred	67.0	22.0		41.86557060002815	0.03331490000709891
4	11.413143999991007	stim	59		2	unambiguous	left	preferred	67.0	22.0		41.89888550003525	0.033344099996611476
4	11.446488099987619	stim	60		2	unambiguous	left	preferred	67.0	22.0		41.93222960003186	0.033367900061421096
4	11.47985600004904	stim	61		2	unambiguous	left	preferred	67.0	22.0		41.96559750009328	0.033806400024332106
4	11.513662400073372	stim	62		2	unambiguous	left	preferred	67.0	22.0		41.99940390011761	0.03394230001140386
4	11.547604700084776	stim	63		2	unambiguous	left	preferred	67.0	22.0		42.03334620012902	0.05005979991983622
4	11.597664500004612	stim	64		2	unambiguous	left	preferred	67.0	22.0		42.08340600004885	0.033328099991194904
4	11.630992599995807	stim	65		2	unambiguous	left	preferred	67.0	22.0		42.11673410004005	0.03340180008672178
4	11.664394400082529	stim	66		2	unambiguous	left	preferred	67.0	22.0		42.15013590012677	0.049908299930393696
5	11.714302700012922	stim	0		2	unambiguous	right	preferred	66.0	89.0		42.200044200057164	0.03355940000619739
5	11.74786210001912	stim	1		2	unambiguous	right	preferred	66.0	89.0		42.23360360006336	0.03344310005195439
5	11.781305200071074	stim	2		2	unambiguous	right	preferred	66.0	89.0		42.267046700115316	0.033351299935020506
5	11.814656500006095	stim	3		2	unambiguous	right	preferred	66.0	89.0		42.300398000050336	0.033328099991194904
5	11.84798459999729	stim	4		2	unambiguous	right	preferred	66.0	89.0		42.33372610004153	0.03368130000308156
5	11.881665900000371	stim	5		2	unambiguous	right	preferred	66.0	89.0		42.36740740004461	0.03340299997944385
5	11.915068899979815	stim	6		2	unambiguous	right	preferred	66.0	89.0		42.400810400024056	0.03339520003646612
5	11.948464100016281	stim	7		2	unambiguous	right	preferred	66.0	89.0		42.43420560006052	0.033487900043837726
5	11.981952000060119	stim	8		2	unambiguous	right	preferred	66.0	89.0		42.46769350010436	0.03351269999984652
5	12.015464700059965	stim	9		2	unambiguous	right	preferred	66.0	89.0		42.50120620010421	0.04971479997038841
5	12.065179500030354	stim	10		2	unambiguous	right	preferred	66.0	89.0		42.550921000074595	0.033563700038939714
5	12.098743200069293	stim	11		2	unambiguous	right	preferred	66.0	89.0		42.584484700113535	0.03358899999875575
5	12.13233220006805	stim	12		2	unambiguous	right	preferred	66.0	89.0		42.61807370011229	0.03317860001698136
5	12.16551080008503	stim	13		2	unambiguous	right	preferred	66.0	89.0		42.65125230012927	0.03345259989146143
5	12.198963399976492	stim	14		2	unambiguous	right	preferred	66.0	89.0		42.68470490002073	0.0333868000889197
5	12.232350200065412	stim	15		2	unambiguous	right	preferred	66.0	89.0		42.71809170010965	0.03334909991826862
5	12.26569929998368	stim	16		0	unambiguous	right	preferred	66.0	89.0		42.75144080002792	26.95188780000899
5	39.21758709999267	right	16	f	2	unambiguous	right	preferred	66.0	89.0	2.1760646000038832	69.70332860003691	-26.898376299999654
5	12.319210799993016	stim	17		2	unambiguous	right	preferred	66.0	89.0		42.80495230003726	0.046437300043180585
5	12.365648100036196	stim	18		2	unambiguous	right	preferred	66.0	89.0		42.85138960008044	0.03340469999238849
5	12.399052800028585	stim	19		2	unambiguous	right	preferred	66.0	89.0		42.884794300072826	0.03331069997511804
5	12.432363500003703	stim	20		2	unambiguous	right	preferred	66.0	89.0		42.918105000047944	0.03347390005365014
5	12.465837400057353	stim	21		2	unambiguous	right	preferred	66.0	89.0		42.951578900101595	0.03331790002994239
5	12.499155300087295	stim	22		2	unambiguous	right	preferred	66.0	89.0		42.98489680013154	0.0335935999173671
5	12.532748900004663	stim	23		2	unambiguous	right	preferred	66.0	89.0		43.018490400048904	0.04996309999842197
5	12.582712000003085	stim	24		2	unambiguous	right	preferred	66.0	89.0		43.068453500047326	0.04985640000086278
5	12.632568400003947	stim	25		2	unambiguous	right	preferred	66.0	89.0		43.11830990004819	0.03338929999154061
5	12.665957699995488	stim	26		2	unambiguous	right	preferred	66.0	89.0		43.15169920003973	0.03356940008234233
5	12.69952710007783	stim	27		2	unambiguous	right	preferred	66.0	89.0		43.18526860012207	0.033603699994273484
5	12.733130800072104	stim	28		2	unambiguous	right	preferred	66.0	89.0		43.218872300116345	0.03320979990530759
5	12.766340599977411	stim	29		2	unambiguous	right	preferred	66.0	89.0		43.25208210002165	0.03336600004695356
5	12.799706600024365	stim	30		2	unambiguous	right	preferred	66.0	89.0		43.285448100068606	0.03337039996404201
5	12.833076999988407	stim	31		2	unambiguous	right	preferred	66.0	89.0		43.31881850003265	0.03379730007145554
5	12.866874300059862	stim	32		2	unambiguous	right	preferred	66.0	89.0		43.352615800104104	0.03318809997290373
5	12.900062400032766	stim	33		2	unambiguous	right	preferred	66.0	89.0		43.38580390007701	0.033393100020475686
5	12.933455500053242	stim	34		2	unambiguous	right	preferred	66.0	89.0		43.41919700009748	0.03329579997807741
5	12.96675130003132	stim	35		2	unambiguous	right	preferred	66.0	89.0		43.45249280007556	0.03319380001630634
5	12.999945100047626	stim	36		2	unambiguous	right	preferred	66.0	89.0		43.48568660009187	0.03323129995260388
5	13.03317640000023	stim	37		2	unambiguous	right	preferred	66.0	89.0		43.51891790004447	0.03385490004438907
5	13.067031300044619	stim	38		2	unambiguous	right	preferred	66.0	89.0		43.55277280008886	0.03320549998898059
5	13.1002368000336	stim	39		2	unambiguous	right	preferred	66.0	89.0		43.58597830007784	0.033357699983753264
5	13.133594500017352	stim	40		2	unambiguous	right	preferred	66.0	89.0		43.619336000061594	0.03347849997226149
5	13.167072999989614	stim	41		2	unambiguous	right	preferred	66.0	89.0		43.652814500033855	0.03323840000666678
5	13.20031139999628	stim	42		2	unambiguous	right	preferred	66.0	89.0		43.68605290004052	0.03532590006943792
5	13.235637300065719	stim	43		2	unambiguous	right	preferred	66.0	89.0		43.72137880010996	0.033321799943223596
5	13.268959100008942	stim	44		2	unambiguous	right	preferred	66.0	89.0		43.754700600053184	0.03339250001590699
5	13.30235160002485	stim	45		2	unambiguous	right	preferred	66.0	89.0		43.78809310006909	0.033450799994170666
5	13.33580240001902	stim	46		2	unambiguous	right	preferred	66.0	89.0		43.82154390006326	0.03333929996006191
5	13.369141699979082	stim	47		2	unambiguous	right	preferred	66.0	89.0		43.85488320002332	0.033834800007753074
5	13.402976499986835	stim	48		2	unambiguous	right	preferred	66.0	89.0		43.888718000031076	0.03312300005927682
5	13.436099500046112	stim	49		2	unambiguous	right	preferred	66.0	89.0		43.92184100009035	0.03312709997408092
5	13.469226600020193	stim	50		2	unambiguous	right	preferred	66.0	89.0		43.954968100064434	0.03334700001869351
5	13.502573600038886	stim	51		2	unambiguous	right	preferred	66.0	89.0		43.98831510008313	0.050163600011728704
5	13.552737200050615	stim	52		2	unambiguous	right	preferred	66.0	89.0		44.038478700094856	0.05028670001775026
5	13.603023900068365	stim	53		2	unambiguous	right	preferred	66.0	89.0		44.08876540011261	0.032898399978876114
5	13.635922300047241	stim	54		2	unambiguous	right	preferred	66.0	89.0		44.12166380009148	0.050535199930891395
5	13.686457499978133	stim	55		2	unambiguous	right	preferred	66.0	89.0		44.172199000022374	0.03336410003248602
5	13.719821600010619	stim	56		2	unambiguous	right	preferred	66.0	89.0		44.20556310005486	0.03284480003640056
5	13.75266640004702	stim	57		2	unambiguous	right	preferred	66.0	89.0		44.23840790009126	0.035550500033423305
5	13.788216900080442	stim	58		2	unambiguous	right	preferred	66.0	89.0		44.273958400124684	0.04858649999368936
5	13.836803400074132	stim	59		2	unambiguous	right	preferred	66.0	89.0		44.32254490011837	0.032583799911662936
5	13.869387199985795	stim	60		2	unambiguous	right	preferred	66.0	89.0		44.355128700030036	0.0334299000678584
5	13.902817100053653	stim	61		2	unambiguous	right	preferred	66.0	89.0		44.388558600097895	0.033170799957588315
5	13.935987900011241	stim	62		2	unambiguous	right	preferred	66.0	89.0		44.42172940005548	0.03368690004572272
5	13.969674800056964	stim	63		2	unambiguous	right	preferred	66.0	89.0		44.455416300101206	0.034038799931295216
5	14.00371359998826	stim	64		2	unambiguous	right	preferred	66.0	89.0		44.4894551000325	0.049981400021351874
5	14.053695000009611	stim	65		2	unambiguous	right	preferred	66.0	89.0		44.53943650005385	0.033271800028160214
6	14.086966800037771	stim	0		2	unambiguous	left	preferred	66.0	155.0		44.57270830008201	0.03328019997570664
6	14.120247000013478	stim	1		2	unambiguous	left	preferred	66.0	155.0		44.60598850005772	0.033621500013396144
6	14.153868500026874	stim	2		2	unambiguous	left	preferred	66.0	155.0		44.639610000071116	0.03373370005283505
6	14.18760220007971	stim	3		2	unambiguous	left	preferred	66.0	155.0		44.67334370012395	0.03336849994957447
6	14.220970700029284	stim	4		2	unambiguous	left	preferred	66.0	155.0		44.706712200073525	0.03322540002409369
6	14.254196100053377	stim	5		2	unambiguous	left	preferred	66.0	155.0		44.73993760009762	0.03333579993341118
6	14.287531899986789	stim	6		2	unambiguous	left	preferred	66.0	155.0		44.77327340003103	0.03347530006431043
6	14.321007200051099	stim	7		2	unambiguous	left	preferred	66.0	155.0		44.80674870009534	0.033309799968265
6	14.354317000019364	stim	8		2	unambiguous	left	preferred	66.0	155.0		44.840058500063606	0.033576800022274256
6	14.387893800041638	stim	9		2	unambiguous	left	preferred	66.0	155.0		44.87363530008588	0.04984969994984567
6	14.437743499991484	stim	10		2	unambiguous	left	preferred	66.0	155.0		44.923485000035726	0.05002209998201579
6	14.4877655999735	stim	11		2	unambiguous	left	preferred	66.0	155.0		44.97350710001774	0.034019700018689036
6	14.521785299992189	stim	12		2	unambiguous	left	preferred	66.0	155.0		45.00752680003643	0.03356110001914203
6	14.55534640001133	stim	13		0	unambiguous	left	preferred	66.0	155.0		45.04108790005557	26.848846600041725
6	41.404193000053056	left	13	j	2	unambiguous	left	preferred	66.0	155.0	2.2676488999277353	71.8899345000973	-26.798926200019196
6	14.60526680003386	stim	14		2	unambiguous	left	preferred	66.0	155.0		45.0910083000781	0.03311670001130551
6	14.638383500045165	stim	15		2	unambiguous	left	preferred	66.0	155.0		45.12412500008941	0.033259799936786294
6	14.671643299981952	stim	16		2	unambiguous	left	preferred	66.0	155.0		45.15738480002619	0.0334527000086382
6	14.70509599999059	stim	17		2	unambiguous	left	preferred	66.0	155.0		45.19083750003483	0.03336570004466921
6	14.73846170003526	stim	18		2	unambiguous	left	preferred	66.0	155.0		45.2242032000795	0.03316700004506856
6	14.771628700080328	stim	19		2	unambiguous	left	preferred	66.0	155.0		45.25737020012457	0.0334028999786824
6	14.80503160005901	stim	20		2	unambiguous	left	preferred	66.0	155.0		45.29077310010325	0.03352279996033758
6	14.838554400019348	stim	21		2	unambiguous	left	preferred	66.0	155.0		45.32429590006359	0.03326639998704195
6	14.87182080000639	stim	22		2	unambiguous	left	preferred	66.0	155.0		45.35756230005063	0.033473100047558546
6	14.905293900053948	stim	23		2	unambiguous	left	preferred	66.0	155.0		45.39103540009819	0.033090799930505455
6	14.938384699984454	stim	24		2	unambiguous	left	preferred	66.0	155.0		45.424126200028695	0.03365770005621016
6	14.972042400040664	stim	25		2	unambiguous	left	preferred	66.0	155.0		45.457783900084905	0.03303809999488294
6	15.005080500035547	stim	26		2	unambiguous	left	preferred	66.0	155.0		45.49082200007979	0.03348630003165454
6	15.038566800067201	stim	27		2	unambiguous	left	preferred	66.0	155.0		45.52430830011144	0.03317919990513474
6	15.071745999972336	stim	28		2	unambiguous	left	preferred	66.0	155.0		45.55748750001658	0.03415450011380017
6	15.105900500086136	stim	29		2	unambiguous	left	preferred	66.0	155.0		45.59164200013038	0.03283709997776896
6	15.138737600063905	stim	30		2	unambiguous	left	preferred	66.0	155.0		45.62447910010815	0.03431859996635467
6	15.17305620003026	stim	31		2	unambiguous	left	preferred	66.0	155.0		45.6587977000745	0.03303209994919598
6	15.206088299979456	stim	32		2	unambiguous	left	preferred	66.0	155.0		45.6918298000237	0.03363980003632605
6	15.239728100015782	stim	33		2	unambiguous	left	preferred	66.0	155.0		45.72546960006002	0.03354770003352314
6	15.273275800049305	stim	34		2	unambiguous	left	preferred	66.0	155.0		45.75901730009355	0.03371089999563992
6	15.306986700044945	stim	35		2	unambiguous	left	preferred	66.0	155.0		45.792728200089186	0.04944079997949302
6	15.356427500024438	stim	36		2	unambiguous	left	preferred	66.0	155.0		45.84216900006868	0.03345510002691299
6	15.389882600051351	stim	37		2	unambiguous	left	preferred	66.0	155.0		45.87562410009559	0.03373889997601509
6	15.423621500027366	stim	38		2	unambiguous	left	preferred	66.0	155.0		45.90936300007161	0.03362070000730455
6	15.45724220003467	stim	39		2	unambiguous	left	preferred	66.0	155.0		45.94298370007891	0.03282389999367297
6	15.490066100028343	stim	40		2	unambiguous	left	preferred	66.0	155.0		45.975807600072585	0.03333670005667955
6	15.523402800085023	stim	41		2	unambiguous	left	preferred	66.0	155.0		46.009144300129265	0.03348359989468008
6	15.556886399979703	stim	42		2	unambiguous	left	preferred	66.0	155.0		46.042627900023945	0.033345900010317564
6	15.59023229999002	stim	43		2	unambiguous	left	preferred	66.0	155.0		46.07597380003426	0.03344400005880743
6	15.623676300048828	stim	44		2	unambiguous	left	preferred	66.0	155.0		46.10941780009307	0.033255600021220744
6	15.656931900070049	stim	45		2	unambiguous	left	preferred	66.0	155.0		46.14267340011429	0.03316729993093759
6	15.690099200000986	stim	46		2	unambiguous	left	preferred	66.0	155.0		46.17584070004523	0.03385960008017719
6	15.723958800081164	stim	47		2	unambiguous	left	preferred	66.0	155.0		46.209700300125405	0.03319509990978986
6	15.757153899990954	stim	48		2	unambiguous	left	preferred	66.0	155.0		46.242895400035195	0.033953400095924735
6	15.791107300086878	stim	49		2	unambiguous	left	preferred	66.0	155.0		46.27684880013112	0.03353469993453473
6	15.824642000021413	stim	50		2	unambiguous	left	preferred	66.0	155.0		46.310383500065655	0.03336400003172457
6	15.858006000053138	stim	51		2	unambiguous	left	preferred	66.0	155.0		46.34374750009738	0.03360700001940131
6	15.891613000072539	stim	52		2	unambiguous	left	preferred	66.0	155.0		46.37735450011678	0.0498023999389261
6	15.941415400011465	stim	53		2	unambiguous	left	preferred	66.0	155.0		46.42715690005571	0.03352619998622686
6	15.974941599997692	stim	54		2	unambiguous	left	preferred	66.0	155.0		46.46068310004193	0.05007670004852116
6	16.025018300046213	stim	55		2	unambiguous	left	preferred	66.0	155.0		46.510759800090455	0.033883800031617284
6	16.05890210007783	stim	56		2	unambiguous	left	preferred	66.0	155.0		46.54464360012207	0.03332709998358041
6	16.09222920006141	stim	57		2	unambiguous	left	preferred	66.0	155.0		46.57797070010565	0.03340089996345341
6	16.125630100024864	stim	58		2	unambiguous	left	preferred	66.0	155.0		46.611371600069106	0.033312999992631376
6	16.158943100017495	stim	59		2	unambiguous	left	preferred	66.0	155.0		46.64468460006174	0.03329070005565882
6	16.192233800073154	stim	60		2	unambiguous	left	preferred	66.0	155.0		46.677975300117396	0.03336819994729012
6	16.225602000020444	stim	61		2	unambiguous	left	preferred	66.0	155.0		46.711343500064686	0.03336450003553182
6	16.258966500055976	stim	62		2	unambiguous	left	preferred	66.0	155.0		46.74470800010022	0.03335879999212921
6	16.292325300048105	stim	63		2	unambiguous	left	preferred	66.0	155.0		46.77806680009235	0.03343049995601177
6	16.325755800004117	stim	64		2	unambiguous	left	preferred	66.0	155.0		46.81149730004836	0.0331069000530988
6	16.358862700057216	stim	65		2	unambiguous	left	preferred	66.0	155.0		46.84460420010146	0.03342069999780506
7	16.39228340005502	stim	0		2	unambiguous	right	preferred	70.0	31.0		46.87802490009926	0.03339659993071109
7	16.425679999985732	stim	1		2	unambiguous	right	preferred	70.0	31.0		46.911421500029974	0.049946000101044774
7	16.475626000086777	stim	2		2	unambiguous	right	preferred	70.0	31.0		46.96136750013102	0.03355729999020696
7	16.509183300076984	stim	3		2	unambiguous	right	preferred	70.0	31.0		46.994924800121225	0.04978299990762025
7	16.558966299984604	stim	4		2	unambiguous	right	preferred	70.0	31.0		47.044707800028846	0.03356910008005798
7	16.592535400064662	stim	5		2	unambiguous	right	preferred	70.0	31.0		47.078276900108904	0.03346029995009303
7	16.625995700014755	stim	6		2	unambiguous	right	preferred	70.0	31.0		47.111737200059	0.03360139997676015
7	16.659597099991515	stim	7		2	unambiguous	right	preferred	70.0	31.0		47.14533860003576	0.03330030001234263
7	16.692897400003858	stim	8		2	unambiguous	right	preferred	70.0	31.0		47.1786389000481	0.033406400005333126
7	16.72630380000919	stim	9		2	unambiguous	right	preferred	70.0	31.0		47.21204530005343	0.03334850003011525
7	16.759652300039306	stim	10		2	unambiguous	right	preferred	70.0	31.0		47.24539380008355	0.033693699981085956
7	16.793346000020392	stim	11		2	unambiguous	right	preferred	70.0	31.0		47.279087500064634	0.0336084000300616
7	16.826954400050454	stim	12		0	unambiguous	right	preferred	70.0	31.0		47.312695900094695	26.860578799969517
7	43.68753320001997	right	12	f	2	unambiguous	right	preferred	70.0	31.0	2.283961800043471	74.17327470006421	-26.810593600035645
7	16.876939599984325	stim	13		2	unambiguous	right	preferred	70.0	31.0		47.36268110002857	0.033511799992993474
7	16.91045139997732	stim	14		2	unambiguous	right	preferred	70.0	31.0		47.39619290002156	0.05000000004656613
7	16.960451400023885	stim	15		2	unambiguous	right	preferred	70.0	31.0		47.44619290006813	0.033372199977748096
7	16.993823600001633	stim	16		2	unambiguous	right	preferred	70.0	31.0		47.479565100045875	0.03320250008255243
7	17.027026100084186	stim	17		2	unambiguous	right	preferred	70.0	31.0		47.51276760012843	0.0334644999820739
7	17.06049060006626	stim	18		2	unambiguous	right	preferred	70.0	31.0		47.5462321001105	0.03329559997655451
7	17.093786200042814	stim	19		2	unambiguous	right	preferred	70.0	31.0		47.579527700087056	0.03348330000881106
7	17.127269500051625	stim	20		2	unambiguous	right	preferred	70.0	31.0		47.61301100009587	0.03323429997544736
7	17.160503800027072	stim	21		2	unambiguous	right	preferred	70.0	31.0		47.646245300071314	0.03326930000912398
7	17.193773100036196	stim	22		2	unambiguous	right	preferred	70.0	31.0		47.67951460008044	0.03332129993941635
7	17.227094399975613	stim	23		2	unambiguous	right	preferred	70.0	31.0		47.712835900019854	0.033696700003929436
7	17.260791099979542	stim	24		2	unambiguous	right	preferred	70.0	31.0		47.746532600023784	0.033310500090010464
7	17.294101600069553	stim	25		2	unambiguous	right	preferred	70.0	31.0		47.779843100113794	0.033290699939243495
7	17.327392300008796	stim	26		2	unambiguous	right	preferred	70.0	31.0		47.81313380005304	0.033465599990449846
7	17.360857899999246	stim	27		2	unambiguous	right	preferred	70.0	31.0		47.84659940004349	0.03317660000175238
7	17.394034500001	stim	28		2	unambiguous	right	preferred	70.0	31.0		47.87977600004524	0.033240800024941564
7	17.42727530002594	stim	29		2	unambiguous	right	preferred	70.0	31.0		47.91301680007018	0.03339200001209974
7	17.46066730003804	stim	30		2	unambiguous	right	preferred	70.0	31.0		47.94640880008228	0.03381279995664954
7	17.49448009999469	stim	31		2	unambiguous	right	preferred	70.0	31.0		47.98022160003893	0.03330850007478148
7	17.52778860006947	stim	32		2	unambiguous	right	preferred	70.0	31.0		48.01353010011371	0.04997109994292259
7	17.577759700012393	stim	33		2	unambiguous	right	preferred	70.0	31.0		48.063501200056635	0.03330560005269945
7	17.611065300065093	stim	34		2	unambiguous	right	preferred	70.0	31.0		48.096806800109334	0.03350499994121492
7	17.644570300006308	stim	35		2	unambiguous	right	preferred	70.0	31.0		48.13031180005055	0.04978830006439239
7	17.6943586000707	stim	36		2	unambiguous	right	preferred	70.0	31.0		48.18010010011494	0.033580999937839806
7	17.72793960000854	stim	37		2	unambiguous	right	preferred	70.0	31.0		48.21368110005278	0.033748900052160025
7	17.7616885000607	stim	38		2	unambiguous	right	preferred	70.0	31.0		48.24743000010494	0.03315719997044653
7	17.794845700031146	stim	39		2	unambiguous	right	preferred	70.0	31.0		48.28058720007539	0.03341319994069636
7	17.828258899971843	stim	40		2	unambiguous	right	preferred	70.0	31.0		48.314000400016084	0.03329910000320524
7	17.861557999975048	stim	41		2	unambiguous	right	preferred	70.0	31.0		48.34729950001929	0.050030000042170286
7	17.91158800001722	stim	42		2	unambiguous	right	preferred	70.0	31.0		48.39732950006146	0.03347080003004521
7	17.945058800047264	stim	43		2	unambiguous	right	preferred	70.0	31.0		48.430800300091505	0.033998999977484345
7	17.979057800024748	stim	44		2	unambiguous	right	preferred	70.0	31.0		48.46479930006899	0.05009210004936904
7	18.029149900074117	stim	45		2	unambiguous	right	preferred	70.0	31.0		48.51489140011836	0.03345139999873936
7	18.062601300072856	stim	46		2	unambiguous	right	preferred	70.0	31.0		48.5483428001171	0.03328549989964813
7	18.095886799972504	stim	47		2	unambiguous	right	preferred	70.0	31.0		48.581628300016746	0.03371530002914369
7	18.129602100001648	stim	48		2	unambiguous	right	preferred	70.0	31.0		48.61534360004589	0.033560700016096234
7	18.163162800017744	stim	49		2	unambiguous	right	preferred	70.0	31.0		48.648904300061986	0.03341919998638332
7	18.196582000004128	stim	50		2	unambiguous	right	preferred	70.0	31.0		48.68232350004837	0.03337469999678433
7	18.229956700000912	stim	51		2	unambiguous	right	preferred	70.0	31.0		48.71569820004515	0.03320110007189214
7	18.263157800072804	stim	52		2	unambiguous	right	preferred	70.0	31.0		48.748899300117046	0.03325310000218451
7	18.29641090007499	stim	53		2	unambiguous	right	preferred	70.0	31.0		48.78215240011923	0.03372750000562519
7	18.330138400080614	stim	54		2	unambiguous	right	preferred	70.0	31.0		48.815879900124855	0.03332259994931519
7	18.36346100002993	stim	55		2	unambiguous	right	preferred	70.0	31.0		48.84920250007417	0.033534000045619905
7	18.39699500007555	stim	56		2	unambiguous	right	preferred	70.0	31.0		48.88273650011979	0.03349289996549487
7	18.430487900041044	stim	57		2	unambiguous	right	preferred	70.0	31.0		48.916229400085285	0.05007210001349449
7	18.48056000005454	stim	58		2	unambiguous	right	preferred	70.0	31.0		48.96630150009878	0.03331520000938326
7	18.51387520006392	stim	59		2	unambiguous	right	preferred	70.0	31.0		48.99961670010816	0.033372199977748096
7	18.54724740004167	stim	60		2	unambiguous	right	preferred	70.0	31.0		49.03298890008591	0.03342540003359318
7	18.580672800075263	stim	61		2	unambiguous	right	preferred	70.0	31.0		49.066414300119504	0.033385599963366985
7	18.61405840003863	stim	62		2	unambiguous	right	preferred	70.0	31.0		49.09979990008287	0.03360730002168566
7	18.647665700060315	stim	63		2	unambiguous	right	preferred	70.0	31.0		49.13340720010456	0.03337650001049042
7	18.681042200070806	stim	64		2	unambiguous	right	preferred	70.0	31.0		49.16678370011505	0.03360899991821498
7	18.71465119998902	stim	65		2	unambiguous	right	preferred	70.0	31.0		49.20039270003326	0.03366670000832528
7	18.748317899997346	stim	66		2	unambiguous	right	preferred	70.0	31.0		49.23405940004159	0.03353310003876686
7	18.781851000036113	stim	67		2	unambiguous	right	preferred	70.0	31.0		49.267592500080355	0.03327060001902282
7	18.815121600055136	stim	68		2	unambiguous	right	preferred	70.0	31.0		49.30086310009938	0.050065399962477386
7	18.865187000017613	stim	69		2	unambiguous	right	preferred	70.0	31.0		49.350928500061855	0.03363069996703416
8	18.898817699984647	stim	0		2	unambiguous	left	preferred	69.0	101.0		49.38455920002889	0.03320120007265359
8	18.9320189000573	stim	1		2	unambiguous	left	preferred	69.0	101.0		49.41776040010154	0.03361569996923208
8	18.965634600026533	stim	2		2	unambiguous	left	preferred	69.0	101.0		49.451376100070775	0.03351800004020333
8	18.999152600066736	stim	3		2	unambiguous	left	preferred	69.0	101.0		49.48489410011098	0.03316749993246049
8	19.032320099999197	stim	4		2	unambiguous	left	preferred	69.0	101.0		49.51806160004344	0.033375200000591576
8	19.06569529999979	stim	5		2	unambiguous	left	preferred	69.0	101.0		49.55143680004403	0.033362200018018484
8	19.099057500017807	stim	6		2	unambiguous	left	preferred	69.0	101.0		49.58479900006205	0.03330030001234263
8	19.13235780003015	stim	7		2	unambiguous	left	preferred	69.0	101.0		49.61809930007439	0.03332389995921403
8	19.165681699989364	stim	8		2	unambiguous	left	preferred	69.0	101.0		49.651423200033605	0.03355520009063184
8	19.199236900079995	stim	9		2	unambiguous	left	preferred	69.0	101.0		49.68497840012424	0.03377330000512302
8	19.23301020008512	stim	10		2	unambiguous	left	preferred	69.0	101.0		49.71875170012936	0.0332044999813661
8	19.266214700066485	stim	11		0	unambiguous	left	preferred	69.0	101.0		49.751956200110726	26.755985399940982
8	46.02220010000747	left	11	j	2	unambiguous	left	preferred	69.0	101.0	2.3730867999838665	76.50794160005171	-26.70577479992062
8	19.31642530008685	stim	12		2	unambiguous	left	preferred	69.0	101.0		49.80216680013109	0.033502499922178686
8	19.349927800009027	stim	13		2	unambiguous	left	preferred	69.0	101.0		49.83566930005327	0.03335699997842312
8	19.38328479998745	stim	14		2	unambiguous	left	preferred	69.0	101.0		49.86902630003169	0.033531000022776425
8	19.416815800010227	stim	15		2	unambiguous	left	preferred	69.0	101.0		49.90255730005447	0.033214200055226684
8	19.450030000065453	stim	16		2	unambiguous	left	preferred	69.0	101.0		49.935771500109695	0.03333409992046654
8	19.48336409998592	stim	17		2	unambiguous	left	preferred	69.0	101.0		49.96910560003016	0.03323210007511079
8	19.51659620006103	stim	18		2	unambiguous	left	preferred	69.0	101.0		50.00233770010527	0.033381099929101765
8	19.549977299990132	stim	19		2	unambiguous	left	preferred	69.0	101.0		50.035718800034374	0.03344140003900975
8	19.583418700029142	stim	20		2	unambiguous	left	preferred	69.0	101.0		50.069160200073384	0.03347050002776086
8	19.616889200056903	stim	21		2	unambiguous	left	preferred	69.0	101.0		50.102630700101145	0.03520299994852394
8	19.652092200005427	stim	22		2	unambiguous	left	preferred	69.0	101.0		50.13783370004967	0.03325279999990016
8	19.685345000005327	stim	23		2	unambiguous	left	preferred	69.0	101.0		50.17108650004957	0.03200410003773868
8	19.717349100043066	stim	24		2	unambiguous	left	preferred	69.0	101.0		50.20309060008731	0.03474100003950298
8	19.75209010008257	stim	25		2	unambiguous	left	preferred	69.0	101.0		50.23783160012681	0.03357639990281314
8	19.785666499985382	stim	26		2	unambiguous	left	preferred	69.0	101.0		50.27140800002962	0.0333173000253737
8	19.818983800010756	stim	27		2	unambiguous	left	preferred	69.0	101.0		50.304725300055	0.0333288999972865
8	19.852312700008042	stim	28		2	unambiguous	left	preferred	69.0	101.0		50.338054200052284	0.033369500073604286
8	19.885682200081646	stim	29		2	unambiguous	left	preferred	69.0	101.0		50.37142370012589	0.033633099985308945
8	19.919315300066955	stim	30		2	unambiguous	left	preferred	69.0	101.0		50.4050568001112	0.032933800015598536
8	19.952249100082554	stim	31		2	unambiguous	left	preferred	69.0	101.0		50.437990600126795	0.03354799991939217
8	19.985797100001946	stim	32		2	unambiguous	left	preferred	69.0	101.0		50.47153860004619	0.050206199986860156
8	20.036003299988806	stim	33		2	unambiguous	left	preferred	69.0	101.0		50.52174480003305	0.049920700024813414
8	20.08592400001362	stim	34		2	unambiguous	left	preferred	69.0	101.0		50.57166550005786	0.03317000006791204
8	20.11909400008153	stim	35		2	unambiguous	left	preferred	69.0	101.0		50.60483550012577	0.0499505999032408
8	20.169044599984773	stim	36		2	unambiguous	left	preferred	69.0	101.0		50.654786100029014	0.03320290008559823
8	20.20224750007037	stim	37		2	unambiguous	left	preferred	69.0	101.0		50.68798900011461	0.03370029991492629
8	20.235947799985297	stim	38		2	unambiguous	left	preferred	69.0	101.0		50.72168930002954	0.03303970000706613
8	20.268987499992363	stim	39		2	unambiguous	left	preferred	69.0	101.0		50.754729000036605	0.03378529998008162
8	20.302772799972445	stim	40		2	unambiguous	left	preferred	69.0	101.0		50.788514300016686	0.049465500051155686
8	20.3522383000236	stim	41		2	unambiguous	left	preferred	69.0	101.0		50.83797980006784	0.03361569996923208
8	20.385853999992833	stim	42		2	unambiguous	left	preferred	69.0	101.0		50.871595500037074	0.03380279999691993
8	20.419656799989752	stim	43		2	unambiguous	left	preferred	69.0	101.0		50.905398300033994	0.04937330004759133
8	20.469030100037344	stim	44		2	unambiguous	left	preferred	69.0	101.0		50.954771600081585	0.03349179995711893
8	20.502521899994463	stim	45		2	unambiguous	left	preferred	69.0	101.0		50.988263400038704	0.03291429998353124
8	20.535436199977994	stim	46		2	unambiguous	left	preferred	69.0	101.0		51.021177700022236	0.03364310006145388
8	20.569079300039448	stim	47		2	unambiguous	left	preferred	69.0	101.0		51.05482080008369	0.0332547000143677
8	20.602334000053816	stim	48		2	unambiguous	left	preferred	69.0	101.0		51.08807550009806	0.0332782999612391
8	20.635612300015055	stim	49		2	unambiguous	left	preferred	69.0	101.0		51.121353800059296	0.03337299998383969
8	20.668985299998894	stim	50		2	unambiguous	left	preferred	69.0	101.0		51.154726800043136	0.03361719998065382
8	20.702602499979548	stim	51		2	unambiguous	left	preferred	69.0	101.0		51.18834400002379	0.03317160008009523
8	20.735774100059643	stim	52		2	unambiguous	left	preferred	69.0	101.0		51.221515600103885	0.03347239992581308
8	20.769246499985456	stim	53		2	unambiguous	left	preferred	69.0	101.0		51.2549880000297	0.033119000028818846
8	20.802365500014275	stim	54		2	unambiguous	left	preferred	69.0	101.0		51.28810700005852	0.03373869997449219
8	20.836104199988768	stim	55		2	unambiguous	left	preferred	69.0	101.0		51.32184570003301	0.033067199983634055
8	20.8691713999724	stim	56		2	unambiguous	left	preferred	69.0	101.0		51.35491290001664	0.033709100098349154
8	20.90288050007075	stim	57		2	unambiguous	left	preferred	69.0	101.0		51.38862200011499	0.03344529995229095
8	20.93632580002304	stim	58		2	unambiguous	left	preferred	69.0	101.0		51.42206730006728	0.03352229995653033
8	20.969848099979572	stim	59		2	unambiguous	left	preferred	69.0	101.0		51.45558960002381	0.03308180009480566
8	21.002929900074378	stim	60		2	unambiguous	left	preferred	69.0	101.0		51.48867140011862	0.03384249994996935
8	21.036772400024347	stim	61		2	unambiguous	left	preferred	69.0	101.0		51.52251390006859	0.03310050000436604
8	21.069872900028713	stim	62		2	unambiguous	left	preferred	69.0	101.0		51.555614400072955	0.03359789995010942
8	21.103470799978822	stim	63		2	unambiguous	left	preferred	69.0	101.0		51.589212300023064	0.033347300020977855
8	21.1368180999998	stim	64		2	unambiguous	left	preferred	69.0	101.0		51.62255960004404	0.03322370001114905
8	21.17004180001095	stim	65		2	unambiguous	left	preferred	69.0	101.0		51.65578330005519	0.03349499998148531
8	21.203536799992435	stim	66		2	unambiguous	left	preferred	69.0	101.0		51.689278300036676	0.03335410007275641
8	21.23689090006519	stim	67		2	unambiguous	left	preferred	69.0	101.0		51.72263240010943	0.03321719996165484
8	21.270108100026846	stim	68		2	unambiguous	left	preferred	69.0	101.0		51.75584960007109	0.03381080005783588
0	21.303918900084682	stim	0		0	break	break	preferred	1.0	0.0		51.78966040012892	27.215879699913785
0	48.51979859999847	break	0	f	120	break	break	preferred	1.0	0.0	2.4641035000095144	79.00554010004271	-25.20648459997028
10	23.313314000028186	stim	0		2	ambiguous	ambiguous	preferred	600.0	30.0		53.79905550007243	0.032993000000715256
10	23.3463070000289	stim	1		2	ambiguous	ambiguous	preferred	600.0	30.0		53.83204850007314	0.03328139998484403
10	23.379588400013745	stim	2		2	ambiguous	ambiguous	preferred	600.0	30.0		53.865329900057986	0.033280599978752434
10	23.412868999992497	stim	3		2	ambiguous	ambiguous	preferred	600.0	30.0		53.89861050003674	0.03383860003668815
10	23.446707600029185	stim	4		2	ambiguous	ambiguous	preferred	600.0	30.0		53.93244910007343	0.03318400005809963
10	23.479891600087285	stim	5		2	ambiguous	ambiguous	preferred	600.0	30.0		53.96563310013153	0.033499499899335206
10	23.51339109998662	stim	6		2	ambiguous	ambiguous	preferred	600.0	30.0		53.99913260003086	0.033803700003772974
10	23.547194799990393	stim	7		2	ambiguous	ambiguous	preferred	600.0	30.0		54.032936300034635	0.03305070009082556
10	23.58024550008122	stim	8		2	ambiguous	ambiguous	preferred	600.0	30.0		54.06598700012546	0.03342759993392974
10	23.61367310001515	stim	9		2	ambiguous	ambiguous	preferred	600.0	30.0		54.09941460005939	0.03354780003428459
10	23.647220900049433	stim	10		2	ambiguous	ambiguous	preferred	600.0	30.0		54.132962400093675	0.03328450000844896
10	23.680505400057882	stim	11		2	ambiguous	ambiguous	preferred	600.0	30.0		54.166246900102124	0.03325689991470426
10	23.713762299972586	stim	12		2	ambiguous	ambiguous	preferred	600.0	30.0		54.19950380001683	0.03398090007249266
10	23.74774320004508	stim	13		2	ambiguous	ambiguous	preferred	600.0	30.0		54.23348470008932	0.03304260002914816
10	23.780785800074227	stim	14		2	ambiguous	ambiguous	preferred	600.0	30.0		54.26652730011847	0.03359669994097203
10	23.8143825000152	stim	15		2	ambiguous	ambiguous	preferred	600.0	30.0		54.30012400005944	0.03388860006816685
10	23.848271100083366	stim	16		2	ambiguous	ambiguous	preferred	600.0	30.0		54.33401260012761	0.0336057998938486
10	23.881876899977215	stim	17		2	ambiguous	ambiguous	preferred	600.0	30.0		54.367618400021456	0.033317500026896596
10	23.91519440000411	stim	18		2	ambiguous	ambiguous	preferred	600.0	30.0		54.40093590004835	0.05044740007724613
10	23.965641800081357	stim	19		2	ambiguous	ambiguous	preferred	600.0	30.0		54.4513833001256	0.04982929991092533
10	24.015471099992283	stim	20		2	ambiguous	ambiguous	preferred	600.0	30.0		54.501212600036524	0.033185800071805716
10	24.04865690006409	stim	21		2	ambiguous	ambiguous	preferred	600.0	30.0		54.53439840010833	0.033452400006353855
10	24.082109300070442	stim	22		2	ambiguous	ambiguous	preferred	600.0	30.0		54.567850800114684	0.033200299949385226
10	24.115309600019827	stim	23		2	ambiguous	ambiguous	preferred	600.0	30.0		54.60105110006407	0.03367230005096644
10	24.148981900070794	stim	24		2	ambiguous	ambiguous	preferred	600.0	30.0		54.634723400115035	0.03342329990118742
10	24.18240519997198	stim	25		2	ambiguous	ambiguous	preferred	600.0	30.0		54.66814670001622	0.03335670009255409
10	24.215761900064535	stim	26		2	ambiguous	ambiguous	preferred	600.0	30.0		54.70150340010878	0.0333325999090448
10	24.24909449997358	stim	27		2	ambiguous	ambiguous	preferred	600.0	30.0		54.73483600001782	0.03333000000566244
10	24.282424499979243	stim	28		2	ambiguous	ambiguous	preferred	600.0	30.0		54.768166000023484	0.03335390007123351
10	24.315778400050476	stim	29		2	ambiguous	ambiguous	preferred	600.0	30.0		54.80151990009472	0.03338199993595481
10	24.34916039998643	stim	30		2	ambiguous	ambiguous	preferred	600.0	30.0		54.83490190003067	0.03355689998716116
10	24.382717299973592	stim	31		2	ambiguous	ambiguous	preferred	600.0	30.0		54.868458800017834	0.03310340002644807
10	24.41582070000004	stim	32		2	ambiguous	ambiguous	preferred	600.0	30.0		54.90156220004428	0.03350240003783256
10	24.449323100037873	stim	33		2	ambiguous	ambiguous	preferred	600.0	30.0		54.935064600082114	0.033443599939346313
10	24.48276669997722	stim	34		2	ambiguous	ambiguous	preferred	600.0	30.0		54.96850820002146	0.033366600051522255
10	24.51613330002874	stim	35		2	ambiguous	ambiguous	preferred	600.0	30.0		55.00187480007298	0.03349860000889748
10	24.54963190003764	stim	36		2	ambiguous	ambiguous	preferred	600.0	30.0		55.03537340008188	0.03357289999257773
10	24.583204800030217	stim	37		2	ambiguous	ambiguous	preferred	600.0	30.0		55.06894630007446	0.033157699974253774
10	24.61636250000447	stim	38		2	ambiguous	ambiguous	preferred	600.0	30.0		55.10210400004871	0.03519750002305955
10	24.65156000002753	stim	39		2	ambiguous	ambiguous	preferred	600.0	30.0		55.13730150007177	0.03342510003130883
10	24.68498510005884	stim	40		2	ambiguous	ambiguous	preferred	600.0	30.0		55.17072660010308	0.03343269997276366
10	24.718417800031602	stim	41		2	ambiguous	ambiguous	preferred	600.0	30.0		55.204159300075844	0.03354840003885329
10	24.751966200070456	stim	42		2	ambiguous	ambiguous	preferred	600.0	30.0		55.2377077001147	0.033206499996595085
10	24.78517270006705	stim	43		2	ambiguous	ambiguous	preferred	600.0	30.0		55.27091420011129	0.033236099989153445
10	24.818408800056204	stim	44		2	ambiguous	ambiguous	preferred	600.0	30.0		55.304150300100446	0.03331279999110848
10	24.851721600047313	stim	45		2	ambiguous	ambiguous	preferred	600.0	30.0		55.337463100091554	0.033316700020805
10	24.885038300068118	stim	46		2	ambiguous	ambiguous	preferred	600.0	30.0		55.37077980011236	0.03335409995634109
10	24.91839240002446	stim	47		2	ambiguous	ambiguous	preferred	600.0	30.0		55.4041339000687	0.03332130005583167
10	24.95171370008029	stim	48		2	ambiguous	ambiguous	preferred	600.0	30.0		55.43745520012453	0.03433989989571273
10	24.986053599976003	stim	49		2	ambiguous	ambiguous	preferred	600.0	30.0		55.471795100020245	0.03245340008288622
10	25.01850700005889	stim	50		2	ambiguous	ambiguous	preferred	600.0	30.0		55.50424850010313	0.03319440002087504
10	25.051701400079764	stim	51		2	ambiguous	ambiguous	preferred	600.0	30.0		55.537442900124006	0.03363619989249855
10	25.085337599972263	stim	52		2	ambiguous	ambiguous	preferred	600.0	30.0		55.571079100016505	0.03317730000708252
10	25.118514899979346	stim	53		2	ambiguous	ambiguous	preferred	600.0	30.0		55.60425640002359	0.033535500057041645
10	25.152050400036387	stim	54		2	ambiguous	ambiguous	preferred	600.0	30.0		55.63779190008063	0.033176700002513826
10	25.1852271000389	stim	55		2	ambiguous	ambiguous	preferred	600.0	30.0		55.67096860008314	0.0330991999944672
10	25.218326300033368	stim	56		2	ambiguous	ambiguous	preferred	600.0	30.0		55.70406780007761	0.03336110000964254
10	25.25168740004301	stim	57		2	ambiguous	ambiguous	preferred	600.0	30.0		55.73742890008725	0.033438900019973516
10	25.285126300062984	stim	58		2	ambiguous	ambiguous	preferred	600.0	30.0		55.770867800107226	0.03326519997790456
10	25.31839150004089	stim	59		2	ambiguous	ambiguous	preferred	600.0	30.0		55.80413300008513	0.03335719997994602
10	25.351748700020835	stim	60		2	ambiguous	ambiguous	preferred	600.0	30.0		55.837490200065076	0.033412500051781535
10	25.385161200072616	stim	61		2	ambiguous	ambiguous	preferred	600.0	30.0		55.87090270011686	0.033418499981053174
10	25.41857970005367	stim	62		2	ambiguous	ambiguous	preferred	600.0	30.0		55.90432120009791	0.03361159993801266
10	25.452191299991682	stim	63		2	ambiguous	ambiguous	preferred	600.0	30.0		55.937932800035924	0.03335670009255409
10	25.485548000084236	stim	64		2	ambiguous	ambiguous	preferred	600.0	30.0		55.97128950012848	0.03332609997596592
10	25.518874100060202	stim	65		2	ambiguous	ambiguous	preferred	600.0	30.0		56.004615600104444	0.03329880000092089
10	25.552172900061123	stim	66		2	ambiguous	ambiguous	preferred	600.0	30.0		56.037914400105365	0.03367089992389083
10	25.585843799985014	stim	67		2	ambiguous	ambiguous	preferred	600.0	30.0		56.071585300029255	0.03350520005915314
10	25.619349000044167	stim	68		2	ambiguous	ambiguous	preferred	600.0	30.0		56.10509050008841	0.03341149992775172
10	25.65276049997192	stim	69		2	ambiguous	ambiguous	preferred	600.0	30.0		56.13850200001616	0.03343430010136217
10	25.68619480007328	stim	70		2	ambiguous	ambiguous	preferred	600.0	30.0		56.17193630011752	0.03343259997200221
10	25.719627400045283	stim	71		2	ambiguous	ambiguous	preferred	600.0	30.0		56.205368900089525	0.03343349997885525
10	25.75306090002414	stim	72		2	ambiguous	ambiguous	preferred	600.0	30.0		56.23880240006838	0.033316300017759204
10	25.786377200041898	stim	73		2	ambiguous	ambiguous	preferred	600.0	30.0		56.27211870008614	0.03350619995035231
10	25.81988339999225	stim	74		2	ambiguous	ambiguous	preferred	600.0	30.0		56.30562490003649	0.03321430005598813
10	25.853097700048238	stim	75		2	ambiguous	ambiguous	preferred	600.0	30.0		56.33883920009248	0.033265699981711805
10	25.88636340002995	stim	76		2	ambiguous	ambiguous	preferred	600.0	30.0		56.37210490007419	0.033587199985049665
10	25.919950600015	stim	77		2	ambiguous	ambiguous	preferred	600.0	30.0		56.40569210005924	0.03346169996075332
10	25.953412299975753	stim	78		2	ambiguous	ambiguous	preferred	600.0	30.0		56.439153800019994	0.03330810007173568
10	25.98672040004749	stim	79		2	ambiguous	ambiguous	preferred	600.0	30.0		56.47246190009173	0.0338188000023365
10	26.020539200049825	stim	80		2	ambiguous	ambiguous	preferred	600.0	30.0		56.50628070009407	0.0331811000360176
10	26.053720300085843	stim	81		2	ambiguous	ambiguous	preferred	600.0	30.0		56.539461800130084	0.033727899892255664
10	26.0874481999781	stim	82		2	ambiguous	ambiguous	preferred	600.0	30.0		56.57318970002234	0.03330950008239597
10	26.120757700060494	stim	83		2	ambiguous	ambiguous	preferred	600.0	30.0		56.606499200104736	0.033485000021755695
10	26.15424270008225	stim	84		2	ambiguous	ambiguous	preferred	600.0	30.0		56.63998420012649	0.03316659992560744
10	26.187409300007857	stim	85		2	ambiguous	ambiguous	preferred	600.0	30.0		56.6731508000521	0.033513100002892315
10	26.22092240001075	stim	86		2	ambiguous	ambiguous	preferred	600.0	30.0		56.70666390005499	0.03330190002452582
10	26.254224300035276	stim	87		2	ambiguous	ambiguous	preferred	600.0	30.0		56.73996580007952	0.03330100001767278
10	26.28752530005295	stim	88		2	ambiguous	ambiguous	preferred	600.0	30.0		56.77326680009719	0.03332009993027896
10	26.320845399983227	stim	89		2	ambiguous	ambiguous	preferred	600.0	30.0		56.80658690002747	0.033527899999171495
10	26.3543732999824	stim	90		2	ambiguous	ambiguous	preferred	600.0	30.0		56.84011480002664	0.033645100076682866
10	26.38801840005908	stim	91		2	ambiguous	ambiguous	preferred	600.0	30.0		56.87375990010332	0.033426899928599596
10	26.42144529998768	stim	92		2	ambiguous	ambiguous	preferred	600.0	30.0		56.90718680003192	0.0336281000636518
10	26.455073400051333	stim	93		2	ambiguous	ambiguous	preferred	600.0	30.0		56.940814900095575	0.03344449994619936
10	26.488517899997532	stim	94		2	ambiguous	ambiguous	preferred	600.0	30.0		56.974259400041774	0.033162100007757545
10	26.52168000000529	stim	95		2	ambiguous	ambiguous	preferred	600.0	30.0		57.00742150004953	0.03338370006531477
10	26.555063700070605	stim	96		2	ambiguous	ambiguous	preferred	600.0	30.0		57.040805200114846	0.03328440000768751
10	26.588348100078292	stim	97		2	ambiguous	ambiguous	preferred	600.0	30.0		57.074089600122534	0.03331500000786036
10	26.621663100086153	stim	98		2	ambiguous	ambiguous	preferred	600.0	30.0		57.107404600130394	0.03365249990019947
10	26.655315599986352	stim	99		2	ambiguous	ambiguous	preferred	600.0	30.0		57.141057100030594	0.03340409998781979
10	26.688719699974172	stim	100		2	ambiguous	ambiguous	preferred	600.0	30.0		57.17446120001841	0.033436099998652935
10	26.722155799972825	stim	101		2	ambiguous	ambiguous	preferred	600.0	30.0		57.207897300017066	0.03342790005262941
10	26.755583700025454	stim	102		2	ambiguous	ambiguous	preferred	600.0	30.0		57.241325200069696	0.03338929999154061
10	26.788973000016995	stim	103		2	ambiguous	ambiguous	preferred	600.0	30.0		57.274714500061236	0.0334457999560982
10	26.822418799973093	stim	104		2	ambiguous	ambiguous	preferred	600.0	30.0		57.308160300017335	0.033187200082466006
10	26.85560600005556	stim	105		2	ambiguous	ambiguous	preferred	600.0	30.0		57.3413475000998	0.0335813999408856
10	26.889187399996445	stim	106		2	ambiguous	ambiguous	preferred	600.0	30.0		57.374928900040686	0.0330678999889642
10	26.92225529998541	stim	107		2	ambiguous	ambiguous	preferred	600.0	30.0		57.40799680002965	0.033453700016252697
10	26.95570900000166	stim	108		2	ambiguous	ambiguous	preferred	600.0	30.0		57.4414505000459	0.033436199999414384
10	26.989145200001076	stim	109		2	ambiguous	ambiguous	preferred	600.0	30.0		57.47488670004532	0.03348740004003048
10	27.022632600041106	stim	110		2	ambiguous	ambiguous	preferred	600.0	30.0		57.50837410008535	0.033579900045879185
10	27.056212500086986	stim	111		2	ambiguous	ambiguous	preferred	600.0	30.0		57.54195400013123	0.03327799995895475
10	27.08949050004594	stim	112		2	ambiguous	ambiguous	preferred	600.0	30.0		57.57523200009018	0.03349920001346618
10	27.122989700059406	stim	113		2	ambiguous	ambiguous	preferred	600.0	30.0		57.60873120010365	0.03327709995210171
10	27.156266800011508	stim	114		2	ambiguous	ambiguous	preferred	600.0	30.0		57.64200830005575	0.033453800017014146
10	27.189720600028522	stim	115		2	ambiguous	ambiguous	preferred	600.0	30.0		57.675462100072764	0.03362520004156977
10	27.223345800070092	stim	116		2	ambiguous	ambiguous	preferred	600.0	30.0		57.709087300114334	0.033865900011733174
10	27.257211700081825	stim	117		2	ambiguous	ambiguous	preferred	600.0	30.0		57.74295320012607	0.033129199990071356
10	27.290340900071897	stim	118		2	ambiguous	ambiguous	preferred	600.0	30.0		57.77608240011614	0.03333040000870824
10	27.323671300080605	stim	119		2	ambiguous	ambiguous	preferred	600.0	30.0		57.809412800124846	0.03331849991809577
10	27.3569897999987	stim	120		2	ambiguous	ambiguous	preferred	600.0	30.0		57.84273130004294	0.03344560007099062
10	27.39043540006969	stim	121		2	ambiguous	ambiguous	preferred	600.0	30.0		57.87617690011393	0.0333012999035418
10	27.423736699973233	stim	122		2	ambiguous	ambiguous	preferred	600.0	30.0		57.909478200017475	0.03411060001235455
10	27.457847299985588	stim	123		2	ambiguous	ambiguous	preferred	600.0	30.0		57.94358880002983	0.03319059999193996
10	27.491037899977528	stim	124		2	ambiguous	ambiguous	preferred	600.0	30.0		57.97677940002177	0.03339570004027337
10	27.5244336000178	stim	125		2	ambiguous	ambiguous	preferred	600.0	30.0		58.01017510006204	0.03350510005839169
10	27.557938700076193	stim	126		2	ambiguous	ambiguous	preferred	600.0	30.0		58.043680200120434	0.033380999928340316
10	27.591319700004533	stim	127		2	ambiguous	ambiguous	preferred	600.0	30.0		58.077061200048774	0.03345780004747212
10	27.624777500052005	stim	128		2	ambiguous	ambiguous	preferred	600.0	30.0		58.11051900009625	0.03356869996059686
10	27.658346200012602	stim	129		2	ambiguous	ambiguous	preferred	600.0	30.0		58.14408770005684	0.03327660006470978
10	27.69162280007731	stim	130		2	ambiguous	ambiguous	preferred	600.0	30.0		58.17736430012155	0.03326339996419847
10	27.72488620004151	stim	131		2	ambiguous	ambiguous	preferred	600.0	30.0		58.21062770008575	0.03372449998278171
10	27.758610700024292	stim	132		2	ambiguous	ambiguous	preferred	600.0	30.0		58.24435220006853	0.03351720003411174
10	27.792127900058404	stim	133		2	ambiguous	ambiguous	preferred	600.0	30.0		58.277869400102645	0.03330180002376437
10	27.825429700082168	stim	134		2	ambiguous	ambiguous	preferred	600.0	30.0		58.31117120012641	0.03332990000490099
10	27.85875960008707	stim	135		2	ambiguous	ambiguous	preferred	600.0	30.0		58.34450110013131	0.03359939996153116
10	27.8923590000486	stim	136		2	ambiguous	ambiguous	preferred	600.0	30.0		58.37810050009284	0.03336010000202805
10	27.925719100050628	stim	137		2	ambiguous	ambiguous	preferred	600.0	30.0		58.41146060009487	0.03334229998290539
10	27.959061400033534	stim	138		2	ambiguous	ambiguous	preferred	600.0	30.0		58.444802900077775	0.03337209997698665
10	27.99243350001052	stim	139		2	ambiguous	ambiguous	preferred	600.0	30.0		58.47817500005476	0.03335130005143583
10	28.025784800061956	stim	140		2	ambiguous	ambiguous	preferred	600.0	30.0		58.5115263001062	0.03338979999534786
10	28.059174600057304	stim	141		2	ambiguous	ambiguous	preferred	600.0	30.0		58.544916100101545	0.0334766999585554
10	28.09265130001586	stim	142		2	ambiguous	ambiguous	preferred	600.0	30.0		58.5783928000601	0.03319650003686547
10	28.125847800052725	stim	143		2	ambiguous	ambiguous	preferred	600.0	30.0		58.611589300096966	0.03345460002310574
10	28.15930240007583	stim	144		2	ambiguous	ambiguous	preferred	600.0	30.0		58.64504390012007	0.03344739996828139
10	28.192749800044112	stim	145		2	ambiguous	ambiguous	preferred	600.0	30.0		58.67849130008835	0.03343409998342395
10	28.226183900027536	stim	146		2	ambiguous	ambiguous	preferred	600.0	30.0		58.71192540007178	0.03340900002513081
10	28.259592900052667	stim	147		2	ambiguous	ambiguous	preferred	600.0	30.0		58.74533440009691	0.03352299996186048
10	28.293115900014527	stim	148		2	ambiguous	ambiguous	preferred	600.0	30.0		58.77885740005877	0.03333210002165288
10	28.32644800003618	stim	149		2	ambiguous	ambiguous	preferred	600.0	30.0		58.81218950008042	0.03314449999015778
10	28.359592500026338	stim	150		2	ambiguous	ambiguous	preferred	600.0	30.0		58.84533400007058	0.03348290000576526
10	28.393075400032103	stim	151		2	ambiguous	ambiguous	preferred	600.0	30.0		58.878816900076345	0.03331229998730123
10	28.426387700019404	stim	152		2	ambiguous	ambiguous	preferred	600.0	30.0		58.912129200063646	0.033329500001855195
10	28.45971720002126	stim	153		2	ambiguous	ambiguous	preferred	600.0	30.0		58.9454587000655	0.03334510000422597
10	28.493062300025485	stim	154		2	ambiguous	ambiguous	preferred	600.0	30.0		58.97880380006973	0.03341210004873574
10	28.52647440007422	stim	155		2	ambiguous	ambiguous	preferred	600.0	30.0		59.01221590011846	0.03365739993751049
10	28.56013180001173	stim	156		2	ambiguous	ambiguous	preferred	600.0	30.0		59.04587330005597	0.03321020002476871
10	28.5933420000365	stim	157		2	ambiguous	ambiguous	preferred	600.0	30.0		59.07908350008074	0.03365040000062436
10	28.626992400037125	stim	158		2	ambiguous	ambiguous	preferred	600.0	30.0		59.112733900081366	0.03326349996495992
10	28.660255900002085	stim	159		2	ambiguous	ambiguous	preferred	600.0	30.0		59.145997400046326	0.03359550004824996
10	28.693851400050335	stim	160		2	ambiguous	ambiguous	preferred	600.0	30.0		59.179592900094576	0.0334846000187099
10	28.727336000069045	stim	161		2	ambiguous	ambiguous	preferred	600.0	30.0		59.213077500113286	0.03314049995969981
10	28.760476500028744	stim	162		2	ambiguous	ambiguous	preferred	600.0	30.0		59.246218000072986	0.03334900003392249
10	28.793825500062667	stim	163		2	ambiguous	ambiguous	preferred	600.0	30.0		59.27956700010691	0.033348699915222824
10	28.82717419997789	stim	164		2	ambiguous	ambiguous	preferred	600.0	30.0		59.31291570002213	0.0333290999988094
10	28.8605032999767	stim	165		2	ambiguous	ambiguous	preferred	600.0	30.0		59.34624480002094	0.033317800029180944
10	28.89382110000588	stim	166		2	ambiguous	ambiguous	preferred	600.0	30.0		59.37956260005012	0.03344719996675849
10	28.92726829997264	stim	167		2	ambiguous	ambiguous	preferred	600.0	30.0		59.41300980001688	0.0334492000984028
10	28.96071750007104	stim	168		2	ambiguous	ambiguous	preferred	600.0	30.0		59.44645900011528	0.033271299907937646
10	28.99398879997898	stim	169		2	ambiguous	ambiguous	preferred	600.0	30.0		59.47973030002322	0.03325930004939437
10	29.027248100028373	stim	170		2	ambiguous	ambiguous	preferred	600.0	30.0		59.512989600072615	0.03357910003978759
10	29.06082720006816	stim	171		2	ambiguous	ambiguous	preferred	600.0	30.0		59.5465687001124	0.033314700005576015
10	29.094141900073737	stim	172		2	ambiguous	ambiguous	preferred	600.0	30.0		59.57988340011798	0.03331819991581142
10	29.12746009998955	stim	173		2	ambiguous	ambiguous	preferred	600.0	30.0		59.61320160003379	0.03363010007888079
10	29.16109020006843	stim	174		2	ambiguous	ambiguous	preferred	600.0	30.0		59.64683170011267	0.03304749995004386
10	29.194137700018473	stim	175		2	ambiguous	ambiguous	preferred	600.0	30.0		59.679879200062715	0.03365630004554987
10	29.227794000064023	stim	176		2	ambiguous	ambiguous	preferred	600.0	30.0		59.713535500108264	0.03345749992877245
10	29.261251499992795	stim	177		2	ambiguous	ambiguous	preferred	600.0	30.0		59.74699300003704	0.03321620007045567
10	29.29446770006325	stim	178		2	ambiguous	ambiguous	preferred	600.0	30.0		59.78020920010749	0.03365029999986291
10	29.328118000063114	stim	179		2	ambiguous	ambiguous	preferred	600.0	30.0		59.813859500107355	0.03343129996210337
10	29.361549300025217	stim	180		2	ambiguous	ambiguous	preferred	600.0	30.0		59.84729080006946	0.0332664999878034
10	29.39481580001302	stim	181		2	ambiguous	ambiguous	preferred	600.0	30.0		59.88055730005726	0.03327240003272891
10	29.42808820004575	stim	182		2	ambiguous	ambiguous	preferred	600.0	30.0		59.91382970008999	0.03339120000600815
10	29.461479400051758	stim	183		2	ambiguous	ambiguous	preferred	600.0	30.0		59.947220900096	0.03383339999709278
10	29.49531280004885	stim	184		2	ambiguous	ambiguous	preferred	600.0	30.0		59.98105430009309	0.033289199927821755
10	29.528601999976672	stim	185		2	ambiguous	ambiguous	preferred	600.0	30.0		60.014343500020914	0.03344000002834946
10	29.56204200000502	stim	186		2	ambiguous	ambiguous	preferred	600.0	30.0		60.04778350004926	0.033717800048179924
10	29.5957598000532	stim	187		2	ambiguous	ambiguous	preferred	600.0	30.0		60.08150130009744	0.032837699982337654
10	29.62859750003554	stim	188		2	ambiguous	ambiguous	preferred	600.0	30.0		60.11433900007978	0.033511499990709126
10	29.66210900002625	stim	189		2	ambiguous	ambiguous	preferred	600.0	30.0		60.14785050007049	0.03337580000516027
10	29.69548480003141	stim	190		2	ambiguous	ambiguous	preferred	600.0	30.0		60.18122630007565	0.033813999965786934
10	29.729298799997196	stim	191		2	ambiguous	ambiguous	preferred	600.0	30.0		60.21504030004144	0.03377960005309433
10	29.76307840005029	stim	192		2	ambiguous	ambiguous	preferred	600.0	30.0		60.24881990009453	0.03352409997023642
10	29.796602500020526	stim	193		2	ambiguous	ambiguous	preferred	600.0	30.0		60.28234400006477	0.03349479997996241
10	29.83009730000049	stim	194		2	ambiguous	ambiguous	preferred	600.0	30.0		60.31583880004473	0.033271500025875866
10	29.863368800026365	stim	195		2	ambiguous	ambiguous	preferred	600.0	30.0		60.349110300070606	0.033897000015713274
10	29.897265800042078	stim	196		2	ambiguous	ambiguous	preferred	600.0	30.0		60.38300730008632	0.0333713999716565
10	29.930637200013734	stim	197		2	ambiguous	ambiguous	preferred	600.0	30.0		60.416378700057976	0.033563400036655366
10	29.96420060005039	stim	198		2	ambiguous	ambiguous	preferred	600.0	30.0		60.44994210009463	0.03305760002695024
10	29.99725820007734	stim	199		2	ambiguous	ambiguous	preferred	600.0	30.0		60.48299970012158	0.03380239999387413
10	30.031060600071214	stim	200		2	ambiguous	ambiguous	preferred	600.0	30.0		60.516802100115456	0.03295999998226762
10	30.06402060005348	stim	201		2	ambiguous	ambiguous	preferred	600.0	30.0		60.54976210009772	0.03335069993045181
10	30.097371299983934	stim	202		2	ambiguous	ambiguous	preferred	600.0	30.0		60.583112800028175	0.03331820003222674
10	30.13068950001616	stim	203		2	ambiguous	ambiguous	preferred	600.0	30.0		60.6164310000604	0.03369890002068132
10	30.16438840003684	stim	204		2	ambiguous	ambiguous	preferred	600.0	30.0		60.65012990008108	0.03347290004603565
10	30.197861300082877	stim	205		2	ambiguous	ambiguous	preferred	600.0	30.0		60.68360280012712	0.03314219997264445
10	30.23100350005552	stim	206		2	ambiguous	ambiguous	preferred	600.0	30.0		60.71674500009976	0.03337920003104955
10	30.26438270008657	stim	207		2	ambiguous	ambiguous	preferred	600.0	30.0		60.75012420013081	0.03343259997200221
10	30.297815300058573	stim	208		2	ambiguous	ambiguous	preferred	600.0	30.0		60.783556800102815	0.033483400009572506
10	30.331298700068146	stim	209		2	ambiguous	ambiguous	preferred	600.0	30.0		60.81704020011239	0.033474699943326414
10	30.364773400011472	stim	210		2	ambiguous	ambiguous	preferred	600.0	30.0		60.850514900055714	0.03354009997565299
10	30.398313499987125	stim	211		2	ambiguous	ambiguous	preferred	600.0	30.0		60.88405500003137	0.03356710006482899
10	30.431880600051954	stim	212		2	ambiguous	ambiguous	preferred	600.0	30.0		60.917622100096196	0.03348290000576526
10	30.46536350005772	stim	213		2	ambiguous	ambiguous	preferred	600.0	30.0		60.95110500010196	0.03339999995660037
10	30.49876350001432	stim	214		2	ambiguous	ambiguous	preferred	600.0	30.0		60.98450500005856	0.03343429998494685
10	30.532197799999267	stim	215		2	ambiguous	ambiguous	preferred	600.0	30.0		61.01793930004351	0.033526499988511205
10	30.565724299987778	stim	216		2	ambiguous	ambiguous	preferred	600.0	30.0		61.05146580003202	0.03349290008191019
10	30.59921720006969	stim	217		2	ambiguous	ambiguous	preferred	600.0	30.0		61.08495870011393	0.03337749990168959
10	30.632594699971378	stim	218		2	ambiguous	ambiguous	preferred	600.0	30.0		61.11833620001562	0.033333800034597516
10	30.665928500005975	stim	219		2	ambiguous	ambiguous	preferred	600.0	30.0		61.15167000005022	0.03348770004231483
10	30.69941620004829	stim	220		2	ambiguous	ambiguous	preferred	600.0	30.0		61.18515770009253	0.03342520003207028
10	30.73284140008036	stim	221		2	ambiguous	ambiguous	preferred	600.0	30.0		61.2185829001246	0.0351587999612093
10	30.76800020004157	stim	222		2	ambiguous	ambiguous	preferred	600.0	30.0		61.25374170008581	0.03335969999898225
10	30.801359900040552	stim	223		2	ambiguous	ambiguous	preferred	600.0	30.0		61.287101400084794	0.0316473999992013
10	30.833007300039753	stim	224		2	ambiguous	ambiguous	preferred	600.0	30.0		61.318748800083995	0.03509949997533113
10	30.868106800015084	stim	225		2	ambiguous	ambiguous	preferred	600.0	30.0		61.353848300059326	0.03337129997089505
10	30.90147809998598	stim	226		2	ambiguous	ambiguous	preferred	600.0	30.0		61.38721960003022	0.033399100066162646
10	30.934877200052142	stim	227		2	ambiguous	ambiguous	preferred	600.0	30.0		61.420618700096384	0.033372499980032444
10	30.968249700032175	stim	228		2	ambiguous	ambiguous	preferred	600.0	30.0		61.453991200076416	0.03360570000950247
10	31.001855400041677	stim	229		2	ambiguous	ambiguous	preferred	600.0	30.0		61.48759690008592	0.033566299942322075
10	31.035421699984	stim	230		2	ambiguous	ambiguous	preferred	600.0	30.0		61.52116320002824	0.032735500019043684
10	31.068157200003043	stim	231		2	ambiguous	ambiguous	preferred	600.0	30.0		61.553898700047284	0.0333593999966979
10	31.10151659999974	stim	232		2	ambiguous	ambiguous	preferred	600.0	30.0		61.58725810004398	0.03331279999110848
10	31.13482939999085	stim	233		2	ambiguous	ambiguous	preferred	600.0	30.0		61.62057090003509	0.03336240001954138
10	31.16819180001039	stim	234		2	ambiguous	ambiguous	preferred	600.0	30.0		61.65393330005463	0.03344000002834946
10	31.20163180003874	stim	235		2	ambiguous	ambiguous	preferred	600.0	30.0		61.68737330008298	0.033224300015717745
10	31.234856100054458	stim	236		2	ambiguous	ambiguous	preferred	600.0	30.0		61.7205976000987	0.03406759991776198
10	31.26892369997222	stim	237		2	ambiguous	ambiguous	preferred	600.0	30.0		61.75466520001646	0.032588600064627826
10	31.301512300036848	stim	238		2	ambiguous	ambiguous	preferred	600.0	30.0		61.78725380008109	0.033662899979390204
10	31.335175200016238	stim	239		2	ambiguous	ambiguous	preferred	600.0	30.0		61.82091670006048	0.03318799997214228
10	31.36836319998838	stim	240		2	ambiguous	ambiguous	preferred	600.0	30.0		61.85410470003262	0.0331921000033617
10	31.401555299991742	stim	241		2	ambiguous	ambiguous	preferred	600.0	30.0		61.88729680003598	0.03356700006406754
10	31.43512230005581	stim	242		2	ambiguous	ambiguous	preferred	600.0	30.0		61.92086380010005	0.03325699991546571
10	31.468379299971275	stim	243		2	ambiguous	ambiguous	preferred	600.0	30.0		61.95412080001552	0.033175500109791756
10	31.501554800081067	stim	244		2	ambiguous	ambiguous	preferred	600.0	30.0		61.98729630012531	0.033924899995326996
10	31.535479700076394	stim	245		2	ambiguous	ambiguous	preferred	600.0	30.0		62.021221200120635	0.04941689991392195
10	31.584896599990316	stim	246		2	ambiguous	ambiguous	preferred	600.0	30.0		62.07063810003456	0.033911700011231005
10	31.618808300001547	stim	247		2	ambiguous	ambiguous	preferred	600.0	30.0		62.10454980004579	0.03338220005389303
10	31.65219050005544	stim	248		2	ambiguous	ambiguous	preferred	600.0	30.0		62.13793200009968	0.03319440002087504
10	31.685384900076315	stim	249		2	ambiguous	ambiguous	preferred	600.0	30.0		62.171126400120556	0.033302499912679195
10	31.718687399988994	stim	250		2	ambiguous	ambiguous	preferred	600.0	30.0		62.204428900033236	0.03373800008557737
10	31.75242540007457	stim	251		2	ambiguous	ambiguous	preferred	600.0	30.0		62.23816690011881	0.03338169993367046
10	31.785807100008242	stim	252		2	ambiguous	ambiguous	preferred	600.0	30.0		62.27154860005248	0.033303000032901764
10	31.819110100041144	stim	253		2	ambiguous	ambiguous	preferred	600.0	30.0		62.304851600085385	0.03340600000228733
10	31.85251610004343	stim	254		2	ambiguous	ambiguous	preferred	600.0	30.0		62.33825760008767	0.033358899992890656
10	31.88587500003632	stim	255		2	ambiguous	ambiguous	preferred	600.0	30.0		62.37161650008056	0.03348850004840642
10	31.919363500084728	stim	256		2	ambiguous	ambiguous	preferred	600.0	30.0		62.40510500012897	0.03332749998662621
10	31.952691000071354	stim	257		2	ambiguous	ambiguous	preferred	600.0	30.0		62.438432500115596	0.03374210000038147
10	31.986433100071736	stim	258		2	ambiguous	ambiguous	preferred	600.0	30.0		62.47217460011598	0.03375359997153282
10	32.02018670004327	stim	259		2	ambiguous	ambiguous	preferred	600.0	30.0		62.50592820008751	0.033293899963609874
10	32.05348060000688	stim	260		2	ambiguous	ambiguous	preferred	600.0	30.0		62.53922210005112	0.03349940001498908
10	32.08698000002187	stim	261		2	ambiguous	ambiguous	preferred	600.0	30.0		62.57272150006611	0.033842200064100325
10	32.12082220008597	stim	262		2	ambiguous	ambiguous	preferred	600.0	30.0		62.60656370013021	0.03331189998425543
10	32.15413410007022	stim	263		2	ambiguous	ambiguous	preferred	600.0	30.0		62.639875600114465	0.03331999992951751
10	32.18745409999974	stim	264		2	ambiguous	ambiguous	preferred	600.0	30.0		62.67319560004398	0.03394930006470531
10	32.221403400064446	stim	265		2	ambiguous	ambiguous	preferred	600.0	30.0		62.70714490010869	0.03307409991975874
10	32.254477499984205	stim	266		2	ambiguous	ambiguous	preferred	600.0	30.0		62.740219000028446	0.033304500044323504
10	32.28778200002853	stim	267		2	ambiguous	ambiguous	preferred	600.0	30.0		62.77352350007277	0.03365140000823885
10	32.32143340003677	stim	268		2	ambiguous	ambiguous	preferred	600.0	30.0		62.80717490008101	0.03359070001170039
10	32.35502410004847	stim	269		2	ambiguous	ambiguous	preferred	600.0	30.0		62.84076560009271	0.033334000036120415
10	32.38835810008459	stim	270		2	ambiguous	ambiguous	preferred	600.0	30.0		62.87409960012883	0.03340019995812327
10	32.42175830004271	stim	271		2	ambiguous	ambiguous	preferred	600.0	30.0		62.90749980008695	0.033520499942824244
10	32.455278799985535	stim	272		2	ambiguous	ambiguous	preferred	600.0	30.0		62.94102030002978	0.0331061000470072
10	32.48838490003254	stim	273		2	ambiguous	ambiguous	preferred	600.0	30.0		62.974126400076784	0.03371530002914369
10	32.522100200061686	stim	274		2	ambiguous	ambiguous	preferred	600.0	30.0		63.00784170010593	0.033327999990433455
10	32.55542820005212	stim	275		2	ambiguous	ambiguous	preferred	600.0	30.0		63.04116970009636	0.033380899927578866
10	32.5888090999797	stim	276		2	ambiguous	ambiguous	preferred	600.0	30.0		63.07455060002394	0.03321010002400726
10	32.622019200003706	stim	277		2	ambiguous	ambiguous	preferred	600.0	30.0		63.10776070004795	0.03337149997241795
10	32.655390699976124	stim	278		2	ambiguous	ambiguous	preferred	600.0	30.0		63.141132200020365	0.03328980004880577
10	32.68868050002493	stim	279		2	ambiguous	ambiguous	preferred	600.0	30.0		63.17442200006917	0.03340259997639805
10	32.72208310000133	stim	280		2	ambiguous	ambiguous	preferred	600.0	30.0		63.20782460004557	0.03348550002556294
10	32.75556860002689	stim	281		2	ambiguous	ambiguous	preferred	600.0	30.0		63.24131010007113	0.03367929998785257
10	32.78924790001474	stim	282		0	ambiguous	ambiguous	preferred	600.0	30.0		63.274989400058985	20.599584799958393
10	53.388832699973136	ambiguous	282	f	2	ambiguous	ambiguous	preferred	600.0	30.0	8.538470900035463	83.87457420001738	-20.566268099937588
10	32.82256460003555	stim	283		2	ambiguous	ambiguous	preferred	600.0	30.0		63.30830610007979	0.033524799975566566
10	32.856089400011115	stim	284		2	ambiguous	ambiguous	preferred	600.0	30.0		63.341830900055356	0.03319430002011359
10	32.88928370003123	stim	285		2	ambiguous	ambiguous	preferred	600.0	30.0		63.37502520007547	0.03371139999944717
10	32.922995100030676	stim	286		2	ambiguous	ambiguous	preferred	600.0	30.0		63.40873660007492	0.03397590003442019
10	32.956971000065096	stim	287		2	ambiguous	ambiguous	preferred	600.0	30.0		63.44271250010934	0.033341399976052344
10	32.99031240004115	stim	288		2	ambiguous	ambiguous	preferred	600.0	30.0		63.47605390008539	0.033293599961325526
10	33.023606000002474	stim	289		2	ambiguous	ambiguous	preferred	600.0	30.0		63.509347500046715	0.0339936000527814
10	33.057599600055255	stim	290		2	ambiguous	ambiguous	preferred	600.0	30.0		63.5433411000995	0.03328289999626577
10	33.09088250005152	stim	291		2	ambiguous	ambiguous	preferred	600.0	30.0		63.57662400009576	0.03377209999598563
10	33.124654600047506	stim	292		2	ambiguous	ambiguous	preferred	600.0	30.0		63.61039610009175	0.03393599996343255
10	33.15859060001094	stim	293		2	ambiguous	ambiguous	preferred	600.0	30.0		63.64433210005518	0.03331400000024587
10	33.191904600011185	stim	294		2	ambiguous	ambiguous	preferred	600.0	30.0		63.677646100055426	0.03335689997766167
10	33.22526149998885	stim	295		2	ambiguous	ambiguous	preferred	600.0	30.0		63.71100300003309	0.033824600046500564
10	33.25908610003535	stim	296		2	ambiguous	ambiguous	preferred	600.0	30.0		63.74482760007959	0.03318489994853735
10	33.292270999983884	stim	297		2	ambiguous	ambiguous	preferred	600.0	30.0		63.778012500028126	0.033698500017635524
10	33.32596950000152	stim	298		2	ambiguous	ambiguous	preferred	600.0	30.0		63.81171100004576	0.03401190007571131
10	33.35998140007723	stim	299		2	ambiguous	ambiguous	preferred	600.0	30.0		63.84572290012147	0.03339699993375689
10	33.39337840001099	stim	300		2	ambiguous	ambiguous	preferred	600.0	30.0		63.87911990005523	0.03327660006470978
10	33.4266550000757	stim	301		2	ambiguous	ambiguous	preferred	600.0	30.0		63.91239650011994	0.033458299934864044
10	33.46011330001056	stim	302		2	ambiguous	ambiguous	preferred	600.0	30.0		63.9458548000548	0.033663299982436
10	33.493776599993	stim	303		2	ambiguous	ambiguous	preferred	600.0	30.0		63.97951810003724	0.033895600005052984
10	33.52767219999805	stim	304		2	ambiguous	ambiguous	preferred	600.0	30.0		64.01341370004229	0.03393650008365512
10	33.561608700081706	stim	305		2	ambiguous	ambiguous	preferred	600.0	30.0		64.04735020012595	0.03393009991850704
10	33.59553880000021	stim	306		2	ambiguous	ambiguous	preferred	600.0	30.0		64.08128030004445	0.0334959999890998
10	33.62903479998931	stim	307		2	ambiguous	ambiguous	preferred	600.0	30.0		64.11477630003355	0.03313360002357513
10	33.66216840001289	stim	308		2	ambiguous	ambiguous	preferred	600.0	30.0		64.14790990005713	0.03374039998743683
10	33.695908800000325	stim	309		2	ambiguous	ambiguous	preferred	600.0	30.0		64.18165030004457	0.033547000028193
10	33.72945580002852	stim	310		2	ambiguous	ambiguous	preferred	600.0	30.0		64.21519730007276	0.03368590003810823
10	33.763141700066626	stim	311		2	ambiguous	ambiguous	preferred	600.0	30.0		64.24888320011087	0.033351499936543405
10	33.79649320000317	stim	312		2	ambiguous	ambiguous	preferred	600.0	30.0		64.28223470004741	0.03395239997189492
10	33.830445599975064	stim	313		2	ambiguous	ambiguous	preferred	600.0	30.0		64.3161871000193	0.033151900046505034
10	33.86359750002157	stim	314		2	ambiguous	ambiguous	preferred	600.0	30.0		64.34933900006581	0.033913100021891296
10	33.89751060004346	stim	315		2	ambiguous	ambiguous	preferred	600.0	30.0		64.3832521000877	0.03338030003942549
10	33.930890900082886	stim	316		2	ambiguous	ambiguous	preferred	600.0	30.0		64.41663240012713	0.03403839992824942
10	33.964929300011136	stim	317		2	ambiguous	ambiguous	preferred	600.0	30.0		64.45067080005538	0.03400430001784116
10	33.99893360002898	stim	318		2	ambiguous	ambiguous	preferred	600.0	30.0		64.48467510007322	0.033533800044097006
10	34.032467400073074	stim	319		2	ambiguous	ambiguous	preferred	600.0	30.0		64.51820890011732	0.03335789998527616
10	34.06582530005835	stim	320		2	ambiguous	ambiguous	preferred	600.0	30.0		64.55156680010259	0.033645099960267544
10	34.09947040001862	stim	321		2	ambiguous	ambiguous	preferred	600.0	30.0		64.58521190006286	0.033532300032675266
10	34.13300270005129	stim	322		2	ambiguous	ambiguous	preferred	600.0	30.0		64.61874420009553	0.03489340003579855
10	34.16789610008709	stim	323		2	ambiguous	ambiguous	preferred	600.0	30.0		64.65363760013133	0.03372469998430461
10	34.201620800071396	stim	324		2	ambiguous	ambiguous	preferred	600.0	30.0		64.68736230011564	0.03311700001358986
10	34.234737800084986	stim	325		2	ambiguous	ambiguous	preferred	600.0	30.0		64.72047930012923	0.03336819994729012
10	34.268106000032276	stim	326		2	ambiguous	ambiguous	preferred	600.0	30.0		64.75384750007652	0.033425800036638975
10	34.301531800068915	stim	327		2	ambiguous	ambiguous	preferred	600.0	30.0		64.78727330011316	0.03327549993991852
10	34.33480730000883	stim	328		2	ambiguous	ambiguous	preferred	600.0	30.0		64.82054880005307	0.03332899999804795
10	34.36813630000688	stim	329		2	ambiguous	ambiguous	preferred	600.0	30.0		64.85387780005112	0.03373310004826635
10	34.40186940005515	stim	330		2	ambiguous	ambiguous	preferred	600.0	30.0		64.88761090009939	0.03332839999347925
10	34.43519780004863	stim	331		2	ambiguous	ambiguous	preferred	600.0	30.0		64.92093930009287	0.03328079998027533
10	34.4684786000289	stim	332		2	ambiguous	ambiguous	preferred	600.0	30.0		64.95422010007314	0.03361020004376769
10	34.50208880007267	stim	333		2	ambiguous	ambiguous	preferred	600.0	30.0		64.98783030011691	0.033314500004053116
10	34.53540330007672	stim	334		2	ambiguous	ambiguous	preferred	600.0	30.0		65.02114480012096	0.03335549996700138
10	34.568758800043724	stim	335		2	ambiguous	ambiguous	preferred	600.0	30.0		65.05450030008797	0.0333284999942407
10	34.602087300037965	stim	336		2	ambiguous	ambiguous	preferred	600.0	30.0		65.0878288000822	0.033463999978266656
10	34.63555130001623	stim	337		2	ambiguous	ambiguous	preferred	600.0	30.0		65.12129280006047	0.03343569999560714
10	34.66898700001184	stim	338		2	ambiguous	ambiguous	preferred	600.0	30.0		65.15472850005608	0.03334349999204278
