trial_nr	onset	event_type	phase	response	nr_frames	block_type	trial_type	response_hand	phase_length	last_frame	key_duration	onset_abs	duration
0	0.019205600023269653	stim	0		0	break	break	preferred	1.0	0.0		27.380107400007546	21.930920399958268
0	21.950125999981537	break	0	space	0	break	break	preferred	1.0	0.0	0.15338530007284135	49.311027799965814	4.278255100012757
0	26.228381099994294	break	0	space	119	break	break	preferred	1.0	0.0	0.20977610000409186	53.58928289997857	-24.186705900006928
1	2.041675199987367	stim	0		2	unambiguous	left	preferred	70.0	0.0		29.402576999971643	0.03340720001142472
1	2.0750823999987915	stim	1		2	unambiguous	left	preferred	70.0	0.0		29.435984199983068	0.03290500002913177
1	2.1079874000279233	stim	2		2	unambiguous	left	preferred	70.0	0.0		29.4688892000122	0.03332559997215867
1	2.141313000000082	stim	3		2	unambiguous	left	preferred	70.0	0.0		29.50221479998436	0.03349349997006357
1	2.1748064999701455	stim	4		2	unambiguous	left	preferred	70.0	0.0		29.535708299954422	0.03452570002991706
1	2.2093322000000626	stim	5		2	unambiguous	left	preferred	70.0	0.0		29.57023399998434	0.032468599965795875
1	2.2418007999658585	stim	6		2	unambiguous	left	preferred	70.0	0.0		29.602702599950135	0.03353060001973063
1	2.275331399985589	stim	7		2	unambiguous	left	preferred	70.0	0.0		29.636233199969865	0.03296989994123578
1	2.308301299926825	stim	8		2	unambiguous	left	preferred	70.0	0.0		29.6692030999111	0.03340900002513081
1	2.3417102999519557	stim	9		2	unambiguous	left	preferred	70.0	0.0		29.702612099936232	0.03373670007567853
1	2.375447000027634	stim	10		2	unambiguous	left	preferred	70.0	0.0		29.73634880001191	0.03378499997779727
1	2.4092320000054315	stim	11		2	unambiguous	left	preferred	70.0	0.0		29.770133799989708	0.03294219996314496
1	2.4421741999685764	stim	12		2	unambiguous	left	preferred	70.0	0.0		29.803075999952853	0.033322300063446164
1	2.4754965000320226	stim	13		2	unambiguous	left	preferred	70.0	0.0		29.8363983000163	0.033326299977488816
1	2.5088228000095114	stim	14		2	unambiguous	left	preferred	70.0	0.0		29.869724599993788	0.03321109991520643
1	2.542033899924718	stim	15		2	unambiguous	left	preferred	70.0	0.0		29.902935699908994	0.03374340001028031
1	2.575777299934998	stim	16		2	unambiguous	left	preferred	70.0	0.0		29.936679099919274	0.033903100062161684
1	2.60968039999716	stim	17		2	unambiguous	left	preferred	70.0	0.0		29.970582199981436	0.033117800019681454
1	2.6427982000168413	stim	18		2	unambiguous	left	preferred	70.0	0.0		30.003700000001118	0.05032959999516606
1	2.6931278000120074	stim	19		2	unambiguous	left	preferred	70.0	0.0		30.054029599996284	0.03331520000938326
1	2.7264430000213906	stim	20		2	unambiguous	left	preferred	70.0	0.0		30.087344800005667	0.03331550001166761
1	2.7597585000330582	stim	21		2	unambiguous	left	preferred	70.0	0.0		30.120660300017335	0.03350319992750883
1	2.793261699960567	stim	22		2	unambiguous	left	preferred	70.0	0.0		30.154163499944843	0.033948900061659515
1	2.8272106000222266	stim	23		2	unambiguous	left	preferred	70.0	0.0		30.188112400006503	0.03262439998798072
1	2.8598350000102073	stim	24		2	unambiguous	left	preferred	70.0	0.0		30.220736799994484	0.03339200001209974
1	2.893227000022307	stim	25		2	unambiguous	left	preferred	70.0	0.0		30.254128800006583	0.0332545000128448
1	2.926481500035152	stim	26		2	unambiguous	left	preferred	70.0	0.0		30.287383300019428	0.03334299998823553
1	2.9598245000233874	stim	27		2	unambiguous	left	preferred	70.0	0.0		30.320726300007664	0.0333829999435693
1	2.9932074999669567	stim	28		2	unambiguous	left	preferred	70.0	0.0		30.354109299951233	0.03382030001375824
1	3.027027799980715	stim	29		2	unambiguous	left	preferred	70.0	0.0		30.38792959996499	0.03297589998692274
1	3.0600036999676377	stim	30		2	unambiguous	left	preferred	70.0	0.0		30.420905499951914	0.033314800006337464
1	3.093318499973975	stim	31		2	unambiguous	left	preferred	70.0	0.0		30.45422029995825	0.033283400000073016
1	3.126601899974048	stim	32		2	unambiguous	left	preferred	70.0	0.0		30.487503699958324	0.03332110005430877
1	3.159923000028357	stim	33		2	unambiguous	left	preferred	70.0	0.0		30.520824800012633	0.03333429992198944
1	3.1932572999503464	stim	34		2	unambiguous	left	preferred	70.0	0.0		30.554159099934623	0.0335848000831902
1	3.2268421000335366	stim	35		2	unambiguous	left	preferred	70.0	0.0		30.587743900017813	0.03328380000311881
1	3.2601259000366554	stim	36		2	unambiguous	left	preferred	70.0	0.0		30.62102770002093	0.03342899994459003
1	3.2935548999812454	stim	37		2	unambiguous	left	preferred	70.0	0.0		30.65445669996552	0.03307719994336367
1	3.326632099924609	stim	38		2	unambiguous	left	preferred	70.0	0.0		30.687533899908885	0.03342810005415231
1	3.3600601999787614	stim	39		2	unambiguous	left	preferred	70.0	0.0		30.720961999963038	0.03348900005221367
1	3.393549200030975	stim	40		2	unambiguous	left	preferred	70.0	0.0		30.75445100001525	0.03347789996769279
1	3.427027099998668	stim	41		2	unambiguous	left	preferred	70.0	0.0		30.787928899982944	0.034299699938856065
1	3.461326799937524	stim	42		2	unambiguous	left	preferred	70.0	0.0		30.8222285999218	0.03258600004483014
1	3.493912799982354	stim	43		2	unambiguous	left	preferred	70.0	0.0		30.85481459996663	0.03331209998577833
1	3.5272248999681324	stim	44		2	unambiguous	left	preferred	70.0	0.0		30.88812669995241	0.03347210003994405
1	3.5606970000080764	stim	45		2	unambiguous	left	preferred	70.0	0.0		30.921598799992353	0.03339410002809018
1	3.5940911000361666	stim	46		2	unambiguous	left	preferred	70.0	0.0		30.954992900020443	0.0336986999027431
1	3.6277897999389097	stim	47		2	unambiguous	left	preferred	70.0	0.0		30.988691599923186	0.03366050007753074
1	3.6614503000164405	stim	48		2	unambiguous	left	preferred	70.0	0.0		31.022352100000717	0.03304409992415458
1	3.694494399940595	stim	49		2	unambiguous	left	preferred	70.0	0.0		31.05539619992487	0.03334120009094477
1	3.72783560003154	stim	50		2	unambiguous	left	preferred	70.0	0.0		31.088737400015816	0.03345909994095564
1	3.7612946999724954	stim	51		2	unambiguous	left	preferred	70.0	0.0		31.12219649995677	0.033403399982489645
1	3.794698099954985	stim	52		2	unambiguous	left	preferred	70.0	0.0		31.15559989993926	0.03344000002834946
1	3.8281380999833345	stim	53		2	unambiguous	left	preferred	70.0	0.0		31.18903989996761	0.0337563999928534
1	3.861894499976188	stim	54		2	unambiguous	left	preferred	70.0	0.0		31.222796299960464	0.03301849996205419
1	3.894912999938242	stim	55		2	unambiguous	left	preferred	70.0	0.0		31.25581479992252	0.03371860005427152
1	3.9286315999925137	stim	56		2	unambiguous	left	preferred	70.0	0.0		31.28953339997679	0.03340279997792095
1	3.9620343999704346	stim	57		2	unambiguous	left	preferred	70.0	0.0		31.32293619995471	0.03339400002732873
1	3.9954283999977633	stim	58		2	unambiguous	left	preferred	70.0	0.0		31.35633019998204	0.03331550001166761
1	4.028743900009431	stim	59		2	unambiguous	left	preferred	70.0	0.0		31.389645699993707	0.03376269992440939
1	4.06250659993384	stim	60		2	unambiguous	left	preferred	70.0	0.0		31.423408399918117	0.0330949000781402
1	4.0956015000119805	stim	61		2	unambiguous	left	preferred	70.0	0.0		31.456503299996257	0.03318339993711561
1	4.128784899949096	stim	62		2	unambiguous	left	preferred	70.0	0.0		31.489686699933372	0.03357279999181628
1	4.162357699940912	stim	63		2	unambiguous	left	preferred	70.0	0.0		31.52325949992519	0.033094100072048604
1	4.195451800012961	stim	64		2	unambiguous	left	preferred	70.0	0.0		31.556353599997237	0.03330929996445775
1	4.228761099977419	stim	65		2	unambiguous	left	preferred	70.0	0.0		31.589662899961695	0.03355519997421652
1	4.262316299951635	stim	66		2	unambiguous	left	preferred	70.0	0.0		31.62321809993591	0.03407070005778223
1	4.2963870000094175	stim	67		2	unambiguous	left	preferred	70.0	0.0		31.657288799993694	0.03298040002118796
1	4.3293674000306055	stim	68		2	unambiguous	left	preferred	70.0	0.0		31.690269200014882	0.03345059999264777
1	4.362818000023253	stim	69		2	unambiguous	left	preferred	70.0	0.0		31.72371980000753	0.0335823999485001
2	4.396400399971753	stim	0		2	unambiguous	left	preferred	70.0	70.0		31.75730219995603	0.03393729997333139
2	4.430337699945085	stim	1		2	unambiguous	left	preferred	70.0	70.0		31.79123949992936	0.050437400001101196
2	4.480775099946186	stim	2		2	unambiguous	left	preferred	70.0	70.0		31.841676899930462	0.03274090006016195
2	4.513516000006348	stim	3		2	unambiguous	left	preferred	70.0	70.0		31.874417799990624	0.033434399985708296
2	4.546950399992056	stim	4		2	unambiguous	left	preferred	70.0	70.0		31.907852199976332	0.03333200002089143
2	4.580282400012948	stim	5		2	unambiguous	left	preferred	70.0	70.0		31.941184199997224	0.03329940000548959
2	4.613581800018437	stim	6		2	unambiguous	left	preferred	70.0	70.0		31.974483600002714	0.03310090000741184
2	4.646682700025849	stim	7		2	unambiguous	left	preferred	70.0	70.0		32.007584500010125	0.033797699958086014
2	4.680480399983935	stim	8		2	unambiguous	left	preferred	70.0	70.0		32.04138219996821	0.033493599970825016
2	4.71397399995476	stim	9		2	unambiguous	left	preferred	70.0	70.0		32.074875799939036	0.03310330002568662
2	4.747077299980447	stim	10		2	unambiguous	left	preferred	70.0	70.0		32.10797909996472	0.03385220002382994
2	4.780929500004277	stim	11		2	unambiguous	left	preferred	70.0	70.0		32.14183129998855	0.03320860001258552
2	4.814138100016862	stim	12		2	unambiguous	left	preferred	70.0	70.0		32.17503990000114	0.03333759994711727
2	4.847475699963979	stim	13		2	unambiguous	left	preferred	70.0	70.0		32.208377499948256	0.0340297999791801
2	4.8815054999431595	stim	14		2	unambiguous	left	preferred	70.0	70.0		32.242407299927436	0.03401599999051541
2	4.915521499933675	stim	15		2	unambiguous	left	preferred	70.0	70.0		32.27642329991795	0.03273620002437383
2	4.948257699958049	stim	16		2	unambiguous	left	preferred	70.0	70.0		32.309159499942325	0.03333000000566244
2	4.981587699963711	stim	17		2	unambiguous	left	preferred	70.0	70.0		32.34248949994799	0.033490900066681206
2	5.015078600030392	stim	18		2	unambiguous	left	preferred	70.0	70.0		32.37598040001467	0.03315629996359348
2	5.048234899993986	stim	19		2	unambiguous	left	preferred	70.0	70.0		32.40913669997826	0.03325149999000132
2	5.081486399983987	stim	20		2	unambiguous	left	preferred	70.0	70.0		32.44238819996826	0.03392259997781366
2	5.115408999961801	stim	21		2	unambiguous	left	preferred	70.0	70.0		32.47631079994608	0.033074900042265654
2	5.1484839000040665	stim	22		2	unambiguous	left	preferred	70.0	70.0		32.50938569998834	0.033764899941161275
2	5.182248799945228	stim	23		2	unambiguous	left	preferred	70.0	70.0		32.543150599929504	0.03348910005297512
2	5.215737899998203	stim	24		2	unambiguous	left	preferred	70.0	70.0		32.57663969998248	0.033334100036881864
2	5.249072000035085	stim	25		2	unambiguous	left	preferred	70.0	70.0		32.60997380001936	0.03322439990006387
2	5.282296399935149	stim	26		2	unambiguous	left	preferred	70.0	70.0		32.643198199919425	0.03388920007273555
2	5.316185600007884	stim	27		2	unambiguous	left	preferred	70.0	70.0		32.67708739999216	0.03437020001001656
2	5.350555800017901	stim	28		2	unambiguous	left	preferred	70.0	70.0		32.71145760000218	0.03239089995622635
2	5.382946699974127	stim	29		2	unambiguous	left	preferred	70.0	70.0		32.7438484999584	0.03325199999380857
2	5.416198699967936	stim	30		2	unambiguous	left	preferred	70.0	70.0		32.77710049995221	0.033277499955147505
2	5.449476199923083	stim	31		2	unambiguous	left	preferred	70.0	70.0		32.81037799990736	0.03361160005442798
2	5.483087799977511	stim	32		2	unambiguous	left	preferred	70.0	70.0		32.84398959996179	0.03386049997061491
2	5.516948299948126	stim	33		2	unambiguous	left	preferred	70.0	70.0		32.8778500999324	0.03315570007544011
2	5.550104000023566	stim	34		2	unambiguous	left	preferred	70.0	70.0		32.91100580000784	0.03338179993443191
2	5.583485799957998	stim	35		2	unambiguous	left	preferred	70.0	70.0		32.944387599942274	0.033320800052024424
2	5.6168066000100225	stim	36		2	unambiguous	left	preferred	70.0	70.0		32.9777083999943	0.03330289991572499
2	5.6501094999257475	stim	37		2	unambiguous	left	preferred	70.0	70.0		33.011011299910024	0.033840700052678585
2	5.683950199978426	stim	38		2	unambiguous	left	preferred	70.0	70.0		33.0448519999627	0.03351249999832362
2	5.71746269997675	stim	39		2	unambiguous	left	preferred	70.0	70.0		33.078364499961026	0.03329910000320524
2	5.750761799979955	stim	40		2	unambiguous	left	preferred	70.0	70.0		33.11166359996423	0.033073100028559566
2	5.7838349000085145	stim	41		2	unambiguous	left	preferred	70.0	70.0		33.14473669999279	0.033340999973006546
2	5.817175899981521	stim	42		2	unambiguous	left	preferred	70.0	70.0		33.1780776999658	0.03330829995684326
2	5.850484199938364	stim	43		2	unambiguous	left	preferred	70.0	70.0		33.21138599992264	0.03335150005295873
2	5.883835699991323	stim	44		2	unambiguous	left	preferred	70.0	70.0		33.2447374999756	0.03367329994216561
2	5.917508999933489	stim	45		2	unambiguous	left	preferred	70.0	70.0		33.278410799917765	0.03450910001993179
2	5.9520180999534205	stim	46		2	unambiguous	left	preferred	70.0	70.0		33.3129198999377	0.03242800000589341
2	5.984446099959314	stim	47		2	unambiguous	left	preferred	70.0	70.0		33.34534789994359	0.03327080002054572
2	6.01771689997986	stim	48		2	unambiguous	left	preferred	70.0	70.0		33.378618699964136	0.033772199996747077
2	6.051489099976607	stim	49		2	unambiguous	left	preferred	70.0	70.0		33.41239089996088	0.03387399995699525
2	6.085363099933602	stim	50		2	unambiguous	left	preferred	70.0	70.0		33.44626489991788	0.033200700068846345
2	6.118563800002448	stim	51		2	unambiguous	left	preferred	70.0	70.0		33.479465599986725	0.03883730003144592
2	6.157401100033894	stim	52		2	unambiguous	left	preferred	70.0	70.0		33.51830290001817	0.028134299907833338
2	6.1855353999417275	stim	53		2	unambiguous	left	preferred	70.0	70.0		33.546437199926004	0.033304500044323504
2	6.218839899986051	stim	54		2	unambiguous	left	preferred	70.0	70.0		33.57974169997033	0.03326769999694079
2	6.252107599982992	stim	55		2	unambiguous	left	preferred	70.0	70.0		33.61300939996727	0.03343730000779033
2	6.285544899990782	stim	56		2	unambiguous	left	preferred	70.0	70.0		33.64644669997506	0.0332475999603048
2	6.318792499951087	stim	57		2	unambiguous	left	preferred	70.0	70.0		33.67969429993536	0.03394049999769777
2	6.352732999948785	stim	58		2	unambiguous	left	preferred	70.0	70.0		33.71363479993306	0.033105900045484304
2	6.385838899994269	stim	59		2	unambiguous	left	preferred	70.0	70.0		33.746740699978545	0.033394700032658875
2	6.419233600026928	stim	60		2	unambiguous	left	preferred	70.0	70.0		33.780135400011204	0.03354919992852956
2	6.4527827999554574	stim	61		2	unambiguous	left	preferred	70.0	70.0		33.813684599939734	0.036449700011871755
2	6.489232499967329	stim	62		2	unambiguous	left	preferred	70.0	70.0		33.850134299951605	0.029844300006516278
2	6.5190767999738455	stim	63		2	unambiguous	left	preferred	70.0	70.0		33.87997859995812	0.033612700062803924
2	6.552689500036649	stim	64		2	unambiguous	left	preferred	70.0	70.0		33.913591300020926	0.03363489999901503
2	6.586324400035664	stim	65		2	unambiguous	left	preferred	70.0	70.0		33.94722620001994	0.03331379999872297
2	6.619638200034387	stim	66		2	unambiguous	left	preferred	70.0	70.0		33.980540000018664	0.036468599922955036
2	6.6561067999573424	stim	67		2	unambiguous	left	preferred	70.0	70.0		34.01700859994162	0.033670100034214556
2	6.689776899991557	stim	68		2	unambiguous	left	preferred	70.0	70.0		34.05067869997583	0.03382210002746433
2	6.723599000019021	stim	69		2	unambiguous	left	preferred	70.0	70.0		34.0845008000033	0.03350949997548014
3	6.7571084999945015	stim	0		2	unambiguous	left	preferred	67.0	140.0		34.11801029997878	0.03326679999008775
3	6.790375299984589	stim	1		2	unambiguous	left	preferred	67.0	140.0		34.151277099968866	0.03277020005043596
3	6.823145500035025	stim	2		2	unambiguous	left	preferred	67.0	140.0		34.1840473000193	0.03348519990686327
3	6.8566306999418885	stim	3		2	unambiguous	left	preferred	67.0	140.0		34.217532499926165	0.033264400088228285
3	6.889895100030117	stim	4		2	unambiguous	left	preferred	67.0	140.0		34.25079690001439	0.03347789996769279
3	6.9233729999978095	stim	5		2	unambiguous	left	preferred	67.0	140.0		34.284274799982086	0.03354939993005246
3	6.956922399927862	stim	6		2	unambiguous	left	preferred	67.0	140.0		34.31782419991214	0.03322680003475398
3	6.990149199962616	stim	7		2	unambiguous	left	preferred	67.0	140.0		34.35105099994689	0.03317589999642223
3	7.023325099959038	stim	8		2	unambiguous	left	preferred	67.0	140.0		34.384226899943314	0.03318360005505383
3	7.056508700014092	stim	9		2	unambiguous	left	preferred	67.0	140.0		34.41741049999837	0.03223629994317889
3	7.088744999957271	stim	10		2	unambiguous	left	preferred	67.0	140.0		34.44964679994155	0.03472430002875626
3	7.123469299986027	stim	11		2	unambiguous	left	preferred	67.0	140.0		34.4843710999703	0.03194589994382113
3	7.155415199929848	stim	12		2	unambiguous	left	preferred	67.0	140.0		34.516316999914125	0.03483600006438792
3	7.190251199994236	stim	13		2	unambiguous	left	preferred	67.0	140.0		34.55115299997851	0.033652100013569
3	7.223903300007805	stim	14		2	unambiguous	left	preferred	67.0	140.0		34.58480509999208	0.03267969994340092
3	7.256582999951206	stim	15		2	unambiguous	left	preferred	67.0	140.0		34.61748479993548	0.033412300050258636
3	7.289995300001465	stim	16		2	unambiguous	left	preferred	67.0	140.0		34.65089709998574	0.03315529995597899
3	7.323150599957444	stim	17		2	unambiguous	left	preferred	67.0	140.0		34.68405239994172	0.03360990004148334
3	7.356760499998927	stim	18		2	unambiguous	left	preferred	67.0	140.0		34.7176622999832	0.03261470003053546
3	7.389375200029463	stim	19		2	unambiguous	left	preferred	67.0	140.0		34.75027700001374	0.03410329995676875
3	7.423478499986231	stim	20		2	unambiguous	left	preferred	67.0	140.0		34.78438029997051	0.03325910004787147
3	7.456737600034103	stim	21		2	unambiguous	left	preferred	67.0	140.0		34.81763940001838	0.033146899892017245
3	7.48988449992612	stim	22		2	unambiguous	left	preferred	67.0	140.0		34.850786299910396	0.03329859999939799
3	7.523183099925518	stim	23		2	unambiguous	left	preferred	67.0	140.0		34.884084899909794	0.0324993000831455
3	7.5556824000086635	stim	24		2	unambiguous	left	preferred	67.0	140.0		34.91658419999294	0.03466959996148944
3	7.590351999970153	stim	25		2	unambiguous	left	preferred	67.0	140.0		34.95125379995443	0.03351269999984652
3	7.6238646999699995	stim	26		2	unambiguous	left	preferred	67.0	140.0		34.984766499954276	0.0347575000487268
3	7.658622200018726	stim	27		2	unambiguous	left	preferred	67.0	140.0		35.019524000003	0.0313162999227643
3	7.689938499941491	stim	28		2	unambiguous	left	preferred	67.0	140.0		35.05084029992577	0.03321800008416176
3	7.723156500025652	stim	29		2	unambiguous	left	preferred	67.0	140.0		35.08405830000993	0.03354009997565299
3	7.756696600001305	stim	30		2	unambiguous	left	preferred	67.0	140.0		35.11759839998558	0.033351299935020506
3	7.790047899936326	stim	31		2	unambiguous	left	preferred	67.0	140.0		35.1509496999206	0.03383690002374351
3	7.823884799960069	stim	32		2	unambiguous	left	preferred	67.0	140.0		35.184786599944346	0.03274240007158369
3	7.856627200031653	stim	33		2	unambiguous	left	preferred	67.0	140.0		35.21752900001593	0.03336269990541041
3	7.8899898999370635	stim	34		2	unambiguous	left	preferred	67.0	140.0		35.25089169992134	0.03325119998771697
3	7.92324109992478	stim	35		2	unambiguous	left	preferred	67.0	140.0		35.28414289990906	0.03311880002729595
3	7.956359899952076	stim	36		2	unambiguous	left	preferred	67.0	140.0		35.31726169993635	0.03347500006202608
3	7.9898349000141025	stim	37		2	unambiguous	left	preferred	67.0	140.0		35.35073669999838	0.034409199957735837
3	8.024244099971838	stim	38		2	unambiguous	left	preferred	67.0	140.0		35.385145899956115	0.0495303999632597
3	8.073774499935098	stim	39		2	unambiguous	left	preferred	67.0	140.0		35.434676299919374	0.05020330008119345
3	8.123977800016291	stim	40		2	unambiguous	left	preferred	67.0	140.0		35.48487960000057	0.032702900003641844
3	8.156680700019933	stim	41		2	unambiguous	left	preferred	67.0	140.0		35.51758250000421	0.033270000014454126
3	8.189950700034387	stim	42		2	unambiguous	left	preferred	67.0	140.0		35.550852500018664	0.03369429998565465
3	8.223645000020042	stim	43		2	unambiguous	left	preferred	67.0	140.0		35.58454680000432	0.03550389991141856
3	8.25914889993146	stim	44		2	unambiguous	left	preferred	67.0	140.0		35.62005069991574	0.03128910006489605
3	8.290437999996357	stim	45		2	unambiguous	left	preferred	67.0	140.0		35.65133979998063	0.03318629995919764
3	8.323624299955554	stim	46		2	unambiguous	left	preferred	67.0	140.0		35.68452609993983	0.03369279997423291
3	8.357317099929787	stim	47		2	unambiguous	left	preferred	67.0	140.0		35.71821889991406	0.03342690004501492
3	8.390743999974802	stim	48		2	unambiguous	left	preferred	67.0	140.0		35.75164579995908	0.033645099960267544
3	8.42438909993507	stim	49		2	unambiguous	left	preferred	67.0	140.0		35.785290899919346	0.033812400070019066
3	8.458201500005089	stim	50		2	unambiguous	left	preferred	67.0	140.0		35.819103299989365	0.032993100001476705
3	8.491194600006565	stim	51		2	unambiguous	left	preferred	67.0	140.0		35.85209639999084	0.03366149996872991
3	8.524856099975295	stim	52		2	unambiguous	left	preferred	67.0	140.0		35.88575789995957	0.03309010004159063
3	8.557946200016886	stim	53		2	unambiguous	left	preferred	67.0	140.0		35.91884800000116	0.033341199974529445
3	8.591287399991415	stim	54		2	unambiguous	left	preferred	67.0	140.0		35.95218919997569	0.033489099936559796
3	8.624776499927975	stim	55		2	unambiguous	left	preferred	67.0	140.0		35.98567829991225	0.034211100079119205
3	8.658987600007094	stim	56		2	unambiguous	left	preferred	67.0	140.0		36.01988939999137	0.033213699935004115
3	8.692201299942099	stim	57		2	unambiguous	left	preferred	67.0	140.0		36.053103099926375	0.04978310002479702
3	8.741984399966896	stim	58		2	unambiguous	left	preferred	67.0	140.0		36.10288619995117	0.033659599954262376
3	8.775643999921158	stim	59		2	unambiguous	left	preferred	67.0	140.0		36.136545799905434	0.03308340010698885
3	8.808727400028147	stim	60		2	unambiguous	left	preferred	67.0	140.0		36.16962920001242	0.03350629995111376
3	8.84223369997926	stim	61		2	unambiguous	left	preferred	67.0	140.0		36.20313549996354	0.0333600000012666
3	8.875593699980527	stim	62		2	unambiguous	left	preferred	67.0	140.0		36.2364954999648	0.033193000010214746
3	8.908786699990742	stim	63		2	unambiguous	left	preferred	67.0	140.0		36.26968849997502	0.03355379996355623
3	8.942340499954298	stim	64		2	unambiguous	left	preferred	67.0	140.0		36.303242299938574	0.033753099967725575
3	8.976093599922024	stim	65		2	unambiguous	left	preferred	67.0	140.0		36.3369953999063	0.03330950008239597
3	9.00940310000442	stim	66		2	unambiguous	left	preferred	67.0	140.0		36.370304899988696	0.03377779992297292
4	9.043180899927393	stim	0		2	unambiguous	left	preferred	69.0	17.0		36.40408269991167	0.03386100009083748
4	9.07704190001823	stim	1		2	unambiguous	left	preferred	69.0	17.0		36.437943700002506	0.03296079998835921
4	9.11000270000659	stim	2		2	unambiguous	left	preferred	69.0	17.0		36.470904499990866	0.033317600027658045
4	9.143320300034247	stim	3		2	unambiguous	left	preferred	69.0	17.0		36.504222100018524	0.03327109990641475
4	9.176591399940662	stim	4		2	unambiguous	left	preferred	69.0	17.0		36.53749319992494	0.03354550001677126
4	9.210136899957433	stim	5		2	unambiguous	left	preferred	69.0	17.0		36.57103869994171	0.0334533000132069
4	9.24359019997064	stim	6		2	unambiguous	left	preferred	69.0	17.0		36.60449199995492	0.03428849996998906
4	9.27787869994063	stim	7		2	unambiguous	left	preferred	69.0	17.0		36.638780499924906	0.03265030006878078
4	9.31052900000941	stim	8		2	unambiguous	left	preferred	69.0	17.0		36.671430799993686	0.033886499935761094
4	9.344415499945171	stim	9		2	unambiguous	left	preferred	69.0	17.0		36.70531729992945	0.033002000069245696
4	9.377417500014417	stim	10		2	unambiguous	left	preferred	69.0	17.0		36.73831929999869	0.03333479992579669
4	9.410752299940214	stim	11		2	unambiguous	left	preferred	69.0	17.0		36.77165409992449	0.03339510003570467
4	9.444147399975918	stim	12		2	unambiguous	left	preferred	69.0	17.0		36.805049199960195	0.034256899962201715
4	9.47840429993812	stim	13		2	unambiguous	left	preferred	69.0	17.0		36.839306099922396	0.032892600051127374
4	9.511296899989247	stim	14		2	unambiguous	left	preferred	69.0	17.0		36.872198699973524	0.03338909999001771
4	9.544685999979265	stim	15		2	unambiguous	left	preferred	69.0	17.0		36.90558779996354	0.03340019995812327
4	9.578086199937388	stim	16		2	unambiguous	left	preferred	69.0	17.0		36.938987999921665	0.0337521000765264
4	9.611838300013915	stim	17		2	unambiguous	left	preferred	69.0	17.0		36.97274009999819	0.03332109993789345
4	9.645159399951808	stim	18		2	unambiguous	left	preferred	69.0	17.0		37.006061199936084	0.034132800064980984
4	9.67929220001679	stim	19		2	unambiguous	left	preferred	69.0	17.0		37.040194000001065	0.032644599908962846
4	9.711936799925752	stim	20		2	unambiguous	left	preferred	69.0	17.0		37.07283859991003	0.03341920010279864
4	9.74535600002855	stim	21		2	unambiguous	left	preferred	69.0	17.0		37.10625780001283	0.0335586000001058
4	9.778914600028656	stim	22		2	unambiguous	left	preferred	69.0	17.0		37.13981640001293	0.03328569990117103
4	9.812200299929827	stim	23		2	unambiguous	left	preferred	69.0	17.0		37.173102099914104	0.0333602000027895
4	9.845560499932617	stim	24		2	unambiguous	left	preferred	69.0	17.0		37.20646229991689	0.03390020004007965
4	9.879460699972697	stim	25		2	unambiguous	left	preferred	69.0	17.0		37.24036249995697	0.032986999955028296
4	9.912447699927725	stim	26		2	unambiguous	left	preferred	69.0	17.0		37.273349499912	0.03326690010726452
4	9.94571460003499	stim	27		2	unambiguous	left	preferred	69.0	17.0		37.306616400019266	0.03334359999280423
4	9.979058200027794	stim	28		2	unambiguous	left	preferred	69.0	17.0		37.33996000001207	0.03350139991380274
4	10.012559599941596	stim	29		2	unambiguous	left	preferred	69.0	17.0		37.37346139992587	0.0333553000818938
4	10.04591490002349	stim	30		2	unambiguous	left	preferred	69.0	17.0		37.40681670000777	0.033764999941922724
4	10.079679899965413	stim	31		2	unambiguous	left	preferred	69.0	17.0		37.44058169994969	0.033861099975183606
4	10.113540999940597	stim	32		2	unambiguous	left	preferred	69.0	17.0		37.47444279992487	0.03263270005118102
4	10.146173699991778	stim	33		2	unambiguous	left	preferred	69.0	17.0		37.507075499976054	0.03329749999102205
4	10.1794711999828	stim	34		2	unambiguous	left	preferred	69.0	17.0		37.540372999967076	0.033329500001855195
4	10.212800699984655	stim	35		2	unambiguous	left	preferred	69.0	17.0		37.57370249996893	0.03328910004347563
4	10.24608980002813	stim	36		2	unambiguous	left	preferred	69.0	17.0		37.60699160001241	0.03315039991866797
4	10.279240199946798	stim	37		2	unambiguous	left	preferred	69.0	17.0		37.640141999931075	0.033860100083984435
4	10.313100300030783	stim	38		2	unambiguous	left	preferred	69.0	17.0		37.67400210001506	0.03288559999782592
4	10.345985900028609	stim	39		2	unambiguous	left	preferred	69.0	17.0		37.706887700012885	0.03376159991603345
4	10.379747499944642	stim	40		2	unambiguous	left	preferred	69.0	17.0		37.74064929992892	0.03329769999254495
4	10.413045199937187	stim	41		2	unambiguous	left	preferred	69.0	17.0		37.77394699992146	0.03344560007099062
4	10.446490800008178	stim	42		2	unambiguous	left	preferred	69.0	17.0		37.807392599992454	0.033336799941025674
4	10.479827599949203	stim	43		2	unambiguous	left	preferred	69.0	17.0		37.84072939993348	0.033745900029316545
4	10.51357349997852	stim	44		2	unambiguous	left	preferred	69.0	17.0		37.874475299962796	0.03320309997070581
4	10.546776599949226	stim	45		2	unambiguous	left	preferred	69.0	17.0		37.9076783999335	0.033128099981695414
4	10.579904699930921	stim	46		2	unambiguous	left	preferred	69.0	17.0		37.9408064999152	0.033416900085285306
4	10.613321600016207	stim	47		2	unambiguous	left	preferred	69.0	17.0		37.97422340000048	0.03329449996817857
4	10.646616099984385	stim	48		2	unambiguous	left	preferred	69.0	17.0		38.00751789996866	0.033825499936938286
4	10.680441599921323	stim	49		2	unambiguous	left	preferred	69.0	17.0		38.0413433999056	0.03361960011534393
4	10.714061200036667	stim	50		2	unambiguous	left	preferred	69.0	17.0		38.074963000020944	0.033261299948208034
4	10.747322499984875	stim	51		2	unambiguous	left	preferred	69.0	17.0		38.10822429996915	0.03335199994035065
4	10.780674499925226	stim	52		2	unambiguous	left	preferred	69.0	17.0		38.1415762999095	0.03342540003359318
4	10.81409989995882	stim	53		2	unambiguous	left	preferred	69.0	17.0		38.175001699943095	0.03392169997096062
4	10.84802159992978	stim	54		2	unambiguous	left	preferred	69.0	17.0		38.208923399914056	0.03334660001564771
4	10.881368199945427	stim	55		2	unambiguous	left	preferred	69.0	17.0		38.242269999929704	0.03387809998821467
4	10.915246299933642	stim	56		2	unambiguous	left	preferred	69.0	17.0		38.27614809991792	0.033245000056922436
4	10.948491299990565	stim	57		2	unambiguous	left	preferred	69.0	17.0		38.30939309997484	0.03318959998432547
4	10.98168089997489	stim	58		2	unambiguous	left	preferred	69.0	17.0		38.342582699959166	0.033357399981468916
4	11.015038299956359	stim	59		2	unambiguous	left	preferred	69.0	17.0		38.375940099940635	0.03376120002940297
4	11.048799499985762	stim	60		2	unambiguous	left	preferred	69.0	17.0		38.40970129997004	0.0334726000437513
4	11.082272100029513	stim	61		2	unambiguous	left	preferred	69.0	17.0		38.44317390001379	0.033493999973870814
4	11.115766100003384	stim	62		2	unambiguous	left	preferred	69.0	17.0		38.47666789998766	0.03412440000101924
4	11.149890500004403	stim	63		2	unambiguous	left	preferred	69.0	17.0		38.51079229998868	0.032459600013680756
4	11.182350100018084	stim	64		2	unambiguous	left	preferred	69.0	17.0		38.54325190000236	0.033327699988149107
4	11.215677800006233	stim	65		2	unambiguous	left	preferred	69.0	17.0		38.57657959999051	0.033359199995175004
4	11.249037000001408	stim	66		2	unambiguous	left	preferred	69.0	17.0		38.609938799985684	0.03349880001042038
4	11.282535800011829	stim	67		2	unambiguous	left	preferred	69.0	17.0		38.643437599996105	0.03337129997089505
4	11.315907099982724	stim	68		2	unambiguous	left	preferred	69.0	17.0		38.676808899967	0.034628800000064075
5	11.350535899982788	stim	0		2	unambiguous	left	preferred	71.0	86.0		38.711437699967064	0.032533899997361004
5	11.383069799980149	stim	1		2	unambiguous	left	preferred	71.0	86.0		38.743971599964425	0.03351189999375492
5	11.416581699973904	stim	2		2	unambiguous	left	preferred	71.0	86.0		38.77748349995818	0.03312609996646643
5	11.44970779994037	stim	3		2	unambiguous	left	preferred	71.0	86.0		38.810609599924646	0.03336990007665008
5	11.48307770001702	stim	4		2	unambiguous	left	preferred	71.0	86.0		38.843979500001296	0.033246299950405955
5	11.516323999967426	stim	5		2	unambiguous	left	preferred	71.0	86.0		38.8772257999517	0.03360990004148334
5	11.54993390000891	stim	6		2	unambiguous	left	preferred	71.0	86.0		38.910835699993186	0.03315549995750189
5	11.583089399966411	stim	7		2	unambiguous	left	preferred	71.0	86.0		38.94399119995069	0.033329500001855195
5	11.616418899968266	stim	8		2	unambiguous	left	preferred	71.0	86.0		38.97732069995254	0.03343810001388192
5	11.649856999982148	stim	9		2	unambiguous	left	preferred	71.0	86.0		39.010758799966425	0.03333490004297346
5	11.683191900025122	stim	10		2	unambiguous	left	preferred	71.0	86.0		39.0440937000094	0.03349279996473342
5	11.716684699989855	stim	11		2	unambiguous	left	preferred	71.0	86.0		39.07758649997413	0.033452400006353855
5	11.75013709999621	stim	12		2	unambiguous	left	preferred	71.0	86.0		39.111038899980485	0.03357129998039454
5	11.783708399976604	stim	13		2	unambiguous	left	preferred	71.0	86.0		39.14461019996088	0.0328150000423193
5	11.816523400018923	stim	14		2	unambiguous	left	preferred	71.0	86.0		39.1774252000032	0.03331580001395196
5	11.849839200032875	stim	15		2	unambiguous	left	preferred	71.0	86.0		39.21074100001715	0.03333879995625466
5	11.88317799998913	stim	16		2	unambiguous	left	preferred	71.0	86.0		39.244079799973406	0.03335629997309297
5	11.916534299962223	stim	17		2	unambiguous	left	preferred	71.0	86.0		39.2774360999465	0.033416699967347085
5	11.94995099992957	stim	18		2	unambiguous	left	preferred	71.0	86.0		39.310852799913846	0.03549820010084659
5	11.985449200030416	stim	19		2	unambiguous	left	preferred	71.0	86.0		39.34635100001469	0.03215049998834729
5	12.017599700018764	stim	20		2	unambiguous	left	preferred	71.0	86.0		39.37850150000304	0.03351229999680072
5	12.051112000015564	stim	21		2	unambiguous	left	preferred	71.0	86.0		39.41201379999984	0.03376669995486736
5	12.084878699970432	stim	22		2	unambiguous	left	preferred	71.0	86.0		39.44578049995471	0.03319990006275475
5	12.118078600033186	stim	23		2	unambiguous	left	preferred	71.0	86.0		39.47898040001746	0.033247999963350594
5	12.151326599996537	stim	24		2	unambiguous	left	preferred	71.0	86.0		39.51222839998081	0.03385589993558824
5	12.185182499932125	stim	25		2	unambiguous	left	preferred	71.0	86.0		39.5460842999164	0.03297190007288009
5	12.218154400005005	stim	26		2	unambiguous	left	preferred	71.0	86.0		39.57905619998928	0.03335099993273616
5	12.251505399937741	stim	27		2	unambiguous	left	preferred	71.0	86.0		39.61240719992202	0.03328000009059906
5	12.28478540002834	stim	28		2	unambiguous	left	preferred	71.0	86.0		39.64568720001262	0.03367789997719228
5	12.318463300005533	stim	29		0	unambiguous	left	preferred	71.0	86.0		39.67936509998981	16.84603320003953
5	29.16449650004506	left	29	f	2	unambiguous	left	preferred	71.0	86.0	9.368319700006396	56.52539830002934	-16.796170200104825
5	12.368326299940236	stim	30		2	unambiguous	left	preferred	71.0	86.0		39.72922809992451	0.03377330000512302
5	12.402099599945359	stim	31		2	unambiguous	left	preferred	71.0	86.0		39.763001399929635	0.033091000048443675
5	12.435190599993803	stim	32		2	unambiguous	left	preferred	71.0	86.0		39.79609239997808	0.033777100034058094
5	12.46896770002786	stim	33		2	unambiguous	left	preferred	71.0	86.0		39.82986950001214	0.037209699978120625
5	12.506177400005981	stim	34		2	unambiguous	left	preferred	71.0	86.0		39.86707919999026	0.03314780001528561
5	12.539325200021267	stim	35		2	unambiguous	left	preferred	71.0	86.0		39.90022700000554	0.030489299912005663
5	12.569814499933273	stim	36		2	unambiguous	left	preferred	71.0	86.0		39.93071629991755	0.03862600005231798
5	12.60844049998559	stim	37		2	unambiguous	left	preferred	71.0	86.0		39.96934229996987	0.03135699999984354
5	12.639797499985434	stim	38		2	unambiguous	left	preferred	71.0	86.0		40.00069929996971	0.03334299998823553
5	12.67314049997367	stim	39		2	unambiguous	left	preferred	71.0	86.0		40.034042299957946	0.03335819998756051
5	12.70649869996123	stim	40		2	unambiguous	left	preferred	71.0	86.0		40.06740049994551	0.03330480004660785
5	12.739803500007838	stim	41		2	unambiguous	left	preferred	71.0	86.0		40.100705299992114	0.03364299994427711
5	12.773446499952115	stim	42		2	unambiguous	left	preferred	71.0	86.0		40.13434829993639	0.03335090004839003
5	12.806797400000505	stim	43		2	unambiguous	left	preferred	71.0	86.0		40.16769919998478	0.03306349995546043
5	12.839860899955966	stim	44		2	unambiguous	left	preferred	71.0	86.0		40.20076269994024	0.03327720006927848
5	12.873138100025244	stim	45		2	unambiguous	left	preferred	71.0	86.0		40.23403990000952	0.03217129991389811
5	12.905309399939142	stim	46		2	unambiguous	left	preferred	71.0	86.0		40.26621119992342	0.03442480007652193
5	12.939734200015664	stim	47		2	unambiguous	left	preferred	71.0	86.0		40.30063599999994	0.03385299991350621
5	12.97358719992917	stim	48		2	unambiguous	left	preferred	71.0	86.0		40.33448899991345	0.03301020001526922
5	13.00659739994444	stim	49		2	unambiguous	left	preferred	71.0	86.0		40.367499199928716	0.03518550004810095
5	13.04178289999254	stim	50		2	unambiguous	left	preferred	71.0	86.0		40.40268469997682	0.03141249995678663
5	13.073195399949327	stim	51		2	unambiguous	left	preferred	71.0	86.0		40.4340971999336	0.03333930007647723
5	13.106534700025804	stim	52		2	unambiguous	left	preferred	71.0	86.0		40.46743650001008	0.033237700001336634
5	13.139772400027141	stim	53		2	unambiguous	left	preferred	71.0	86.0		40.50067420001142	0.03351539990399033
5	13.173287799931131	stim	54		2	unambiguous	left	preferred	71.0	86.0		40.53418959991541	0.032336600008420646
5	13.205624399939552	stim	55		2	unambiguous	left	preferred	71.0	86.0		40.56652619992383	0.03433030005544424
5	13.239954699994996	stim	56		2	unambiguous	left	preferred	71.0	86.0		40.60085649997927	0.03321639995556325
5	13.27317109995056	stim	57		2	unambiguous	left	preferred	71.0	86.0		40.634072899934836	0.03328570001758635
5	13.306456799968146	stim	58		2	unambiguous	left	preferred	71.0	86.0		40.66735859995242	0.03327250003349036
5	13.339729300001636	stim	59		2	unambiguous	left	preferred	71.0	86.0		40.70063109998591	0.033325099968351424
5	13.373054399969988	stim	60		2	unambiguous	left	preferred	71.0	86.0		40.733956199954264	0.0337019000435248
5	13.406756300013512	stim	61		2	unambiguous	left	preferred	71.0	86.0		40.76765809999779	0.03316539991647005
5	13.439921699929982	stim	62		2	unambiguous	left	preferred	71.0	86.0		40.80082349991426	0.03519560000859201
5	13.475117299938574	stim	63		2	unambiguous	left	preferred	71.0	86.0		40.83601909992285	0.031366300070658326
5	13.506483600009233	stim	64		2	unambiguous	left	preferred	71.0	86.0		40.86738539999351	0.03332839999347925
5	13.539812000002712	stim	65		2	unambiguous	left	preferred	71.0	86.0		40.90071379998699	0.03327140002511442
5	13.573083400027826	stim	66		2	unambiguous	left	preferred	71.0	86.0		40.9339852000121	0.03346339997369796
5	13.606546800001524	stim	67		2	unambiguous	left	preferred	71.0	86.0		40.9674485999858	0.03346810000948608
5	13.64001490001101	stim	68		2	unambiguous	left	preferred	71.0	86.0		41.00091669999529	0.033324999967589974
5	13.6733398999786	stim	69		2	unambiguous	left	preferred	71.0	86.0		41.03424169996288	0.03315989999100566
5	13.706499799969606	stim	70		2	unambiguous	left	preferred	71.0	86.0		41.06740159995388	0.03315639996435493
6	13.739656199933961	stim	0		2	unambiguous	left	preferred	66.0	157.0		41.10055799991824	0.03303859999869019
6	13.772694799932651	stim	1		2	unambiguous	left	preferred	66.0	157.0		41.13359659991693	0.03359890007413924
6	13.80629370000679	stim	2		2	unambiguous	left	preferred	66.0	157.0		41.16719549999107	0.03398039995227009
6	13.84027409995906	stim	3		2	unambiguous	left	preferred	66.0	157.0		41.20117589994334	0.03311109996866435
6	13.873385199927725	stim	4		2	unambiguous	left	preferred	66.0	157.0		41.234286999912	0.03483300004154444
6	13.90821819996927	stim	5		2	unambiguous	left	preferred	66.0	157.0		41.269119999953546	0.03162530006375164
6	13.939843500033021	stim	6		2	unambiguous	left	preferred	66.0	157.0		41.3007453000173	0.03335519996471703
6	13.973198699997738	stim	7		2	unambiguous	left	preferred	66.0	157.0		41.334100499982014	0.03335369995329529
6	14.006552399951033	stim	8		2	unambiguous	left	preferred	66.0	157.0		41.36745419993531	0.0340487000066787
6	14.040601099957712	stim	9		2	unambiguous	left	preferred	66.0	157.0		41.40150289994199	0.03301650006324053
6	14.073617600020953	stim	10		2	unambiguous	left	preferred	66.0	157.0		41.43451940000523	0.0331967999227345
6	14.106814399943687	stim	11		2	unambiguous	left	preferred	66.0	157.0		41.46771619992796	0.03341869998257607
6	14.140233099926263	stim	12		2	unambiguous	left	preferred	66.0	157.0		41.50113489991054	0.03331550001166761
6	14.17354859993793	stim	13		2	unambiguous	left	preferred	66.0	157.0		41.53445039992221	0.03333510004449636
6	14.206883699982427	stim	14		2	unambiguous	left	preferred	66.0	157.0		41.5677854999667	0.03363520000129938
6	14.240518899983726	stim	15		2	unambiguous	left	preferred	66.0	157.0		41.601420699968	0.033871499937959015
6	14.274390399921685	stim	16		2	unambiguous	left	preferred	66.0	157.0		41.63529219990596	0.03268110007047653
6	14.307071499992162	stim	17		2	unambiguous	left	preferred	66.0	157.0		41.66797329997644	0.03325790003873408
6	14.340329400030896	stim	18		2	unambiguous	left	preferred	66.0	157.0		41.70123120001517	0.03335219994187355
6	14.37368159997277	stim	19		2	unambiguous	left	preferred	66.0	157.0		41.734583399957046	0.033331000013276935
6	14.407012599986047	stim	20		2	unambiguous	left	preferred	66.0	157.0		41.76791439997032	0.034172600018791854
6	14.441185200004838	stim	21		2	unambiguous	left	preferred	66.0	157.0		41.802086999989115	0.0499698999337852
6	14.491155099938624	stim	22		2	unambiguous	left	preferred	66.0	157.0		41.8520568999229	0.033255500020459294
6	14.524410599959083	stim	23		2	unambiguous	left	preferred	66.0	157.0		41.88531239994336	0.03338520007673651
6	14.55779580003582	stim	24		2	unambiguous	left	preferred	66.0	157.0		41.918697600020096	0.03322029998525977
6	14.59101610002108	stim	25		2	unambiguous	left	preferred	66.0	157.0		41.951917900005355	0.033351599937304854
6	14.624367699958384	stim	26		2	unambiguous	left	preferred	66.0	157.0		41.98526949994266	0.03354309999849647
6	14.65791079995688	stim	27		2	unambiguous	left	preferred	66.0	157.0		42.01881259994116	0.0339434000197798
6	14.69185419997666	stim	28		2	unambiguous	left	preferred	66.0	157.0		42.05275599996094	0.03268099995329976
6	14.72453519992996	stim	29		2	unambiguous	left	preferred	66.0	157.0		42.085436999914236	0.03399390005506575
6	14.758529099985026	stim	30		2	unambiguous	left	preferred	66.0	157.0		42.1194308999693	0.033326599979773164
6	14.791855699964799	stim	31		2	unambiguous	left	preferred	66.0	157.0		42.152757499949075	0.03298909997101873
6	14.824844799935818	stim	32		2	unambiguous	left	preferred	66.0	157.0		42.185746599920094	0.03282530000433326
6	14.857670099940151	stim	33		2	unambiguous	left	preferred	66.0	157.0		42.21857189992443	0.033895600005052984
6	14.891565699945204	stim	34		2	unambiguous	left	preferred	66.0	157.0		42.25246749992948	0.03303869999945164
6	14.924604399944656	stim	35		2	unambiguous	left	preferred	66.0	157.0		42.28550619992893	0.033291200059466064
6	14.957895600004122	stim	36		2	unambiguous	left	preferred	66.0	157.0		42.3187973999884	0.03353319992311299
6	14.991428799927235	stim	37		2	unambiguous	left	preferred	66.0	157.0		42.35233059991151	0.033261300064623356
6	15.024690099991858	stim	38		2	unambiguous	left	preferred	66.0	157.0		42.385591899976134	0.03339280001819134
6	15.05808290001005	stim	39		2	unambiguous	left	preferred	66.0	157.0		42.418984699994326	0.033725099987350404
6	15.0918079999974	stim	40		2	unambiguous	left	preferred	66.0	157.0		42.452709799981676	0.03332429996225983
6	15.12513229995966	stim	41		2	unambiguous	left	preferred	66.0	157.0		42.486034099943936	0.03338669997174293
6	15.158518999931403	stim	42		2	unambiguous	left	preferred	66.0	157.0		42.51942079991568	0.033208100008778274
6	15.19172709994018	stim	43		2	unambiguous	left	preferred	66.0	157.0		42.55262889992446	0.03333050000946969
6	15.22505759994965	stim	44		2	unambiguous	left	preferred	66.0	157.0		42.58595939993393	0.033753300085663795
6	15.258810900035314	stim	45		2	unambiguous	left	preferred	66.0	157.0		42.61971270001959	0.03355959989130497
6	15.29237049992662	stim	46		2	unambiguous	left	preferred	66.0	157.0		42.653272299910896	0.03362690005451441
6	15.325997399981134	stim	47		2	unambiguous	left	preferred	66.0	157.0		42.68689919996541	0.03311109996866435
6	15.359108499949798	stim	48		2	unambiguous	left	preferred	66.0	157.0		42.720010299934074	0.03325890004634857
6	15.392367399996147	stim	49		2	unambiguous	left	preferred	66.0	157.0		42.75326919998042	0.03331059997435659
6	15.425677999970503	stim	50		2	unambiguous	left	preferred	66.0	157.0		42.78657979995478	0.0333600000012666
6	15.45903799997177	stim	51		2	unambiguous	left	preferred	66.0	157.0		42.819939799956046	0.03362200001720339
6	15.492659999988973	stim	52		2	unambiguous	left	preferred	66.0	157.0		42.85356179997325	0.034428599989041686
6	15.527088599978015	stim	53		2	unambiguous	left	preferred	66.0	157.0		42.88799039996229	0.0322505000513047
6	15.55933910002932	stim	54		2	unambiguous	left	preferred	66.0	157.0		42.920240900013596	0.033277699956670403
6	15.59261679998599	stim	55		2	unambiguous	left	preferred	66.0	157.0		42.953518599970266	0.033332600025460124
6	15.62594940001145	stim	56		2	unambiguous	left	preferred	66.0	157.0		42.986851199995726	0.03378840000368655
6	15.659737800015137	stim	57		2	unambiguous	left	preferred	66.0	157.0		43.02063959999941	0.03331799991428852
6	15.693055799929425	stim	58		2	unambiguous	left	preferred	66.0	157.0		43.0539575999137	0.03417130000889301
6	15.727227099938318	stim	59		2	unambiguous	left	preferred	66.0	157.0		43.088128899922594	0.03301910008303821
6	15.760246200021356	stim	60		2	unambiguous	left	preferred	66.0	157.0		43.12114800000563	0.03327249991707504
6	15.793518699938431	stim	61		2	unambiguous	left	preferred	66.0	157.0		43.15442049992271	0.03328830003738403
6	15.826806999975815	stim	62		2	unambiguous	left	preferred	66.0	157.0		43.18770879996009	0.03339280001819134
6	15.860199799994007	stim	63		2	unambiguous	left	preferred	66.0	157.0		43.22110159997828	0.03362380003090948
6	15.893823600024916	stim	64		2	unambiguous	left	preferred	66.0	157.0		43.25472540000919	0.03384389996062964
6	15.927667499985546	stim	65		2	unambiguous	left	preferred	66.0	157.0		43.28856929996982	0.03325360000599176
7	15.960921099991538	stim	0		2	unambiguous	left	preferred	66.0	33.0		43.321822899975814	0.03342019999399781
7	15.994341299985535	stim	1		2	unambiguous	left	preferred	66.0	33.0		43.35524309996981	0.03330070001538843
7	16.027642000000924	stim	2		2	unambiguous	left	preferred	66.0	33.0		43.3885437999852	0.03382080001756549
7	16.06146280001849	stim	3		2	unambiguous	left	preferred	66.0	33.0		43.422364600002766	0.033564799930900335
7	16.09502759994939	stim	4		2	unambiguous	left	preferred	66.0	33.0		43.455929399933666	0.03379250003490597
7	16.128820099984296	stim	5		2	unambiguous	left	preferred	66.0	33.0		43.48972189996857	0.033243700047023594
7	16.16206380003132	stim	6		2	unambiguous	left	preferred	66.0	33.0		43.522965600015596	0.03329890000168234
7	16.195362700033	stim	7		2	unambiguous	left	preferred	66.0	33.0		43.55626450001728	0.0332975999917835
7	16.228660300024785	stim	8		2	unambiguous	left	preferred	66.0	33.0		43.58956210000906	0.03326940000988543
7	16.26192970003467	stim	9		2	unambiguous	left	preferred	66.0	33.0		43.62283150001895	0.03334480000194162
7	16.295274500036612	stim	10		2	unambiguous	left	preferred	66.0	33.0		43.65617630002089	0.033616599976085126
7	16.328891100012697	stim	11		2	unambiguous	left	preferred	66.0	33.0		43.689792899996974	0.03382299991790205
7	16.3627140999306	stim	12		2	unambiguous	left	preferred	66.0	33.0		43.723615899914876	0.032621300080791116
7	16.39533540001139	stim	13		2	unambiguous	left	preferred	66.0	33.0		43.75623719999567	0.03335119993425906
7	16.42868659994565	stim	14		2	unambiguous	left	preferred	66.0	33.0		43.789588399929926	0.033286400022916496
7	16.461972999968566	stim	15		2	unambiguous	left	preferred	66.0	33.0		43.82287479995284	0.0333049000473693
7	16.495277900015935	stim	16		2	unambiguous	left	preferred	66.0	33.0		43.85617970000021	0.03383089997805655
7	16.529108799993992	stim	17		2	unambiguous	left	preferred	66.0	33.0		43.89001059997827	0.03422769997268915
7	16.56333649996668	stim	18		2	unambiguous	left	preferred	66.0	33.0		43.92423829995096	0.03256720001809299
7	16.595903699984774	stim	19		2	unambiguous	left	preferred	66.0	33.0		43.95680549996905	0.03334810002706945
7	16.629251800011843	stim	20		2	unambiguous	left	preferred	66.0	33.0		43.99015359999612	0.03379719995427877
7	16.663048999966122	stim	21		2	unambiguous	left	preferred	66.0	33.0		44.0239507999504	0.03359070001170039
7	16.696639699977823	stim	22		2	unambiguous	left	preferred	66.0	33.0		44.0575414999621	0.03335549996700138
7	16.729995199944824	stim	23		2	unambiguous	left	preferred	66.0	33.0		44.0908969999291	0.03398250008467585
7	16.7639777000295	stim	24		2	unambiguous	left	preferred	66.0	33.0		44.124879500013776	0.03298299992457032
7	16.79696069995407	stim	25		2	unambiguous	left	preferred	66.0	33.0		44.157862499938346	0.033409400028176606
7	16.830370099982247	stim	26		2	unambiguous	left	preferred	66.0	33.0		44.19127189996652	0.03376699995715171
7	16.8641370999394	stim	27		2	unambiguous	left	preferred	66.0	33.0		44.225038899923675	0.03328910004347563
7	16.897426199982874	stim	28		2	unambiguous	left	preferred	66.0	33.0		44.25832799996715	0.033277399954386055
7	16.93070359993726	stim	29		2	unambiguous	left	preferred	66.0	33.0		44.291605399921536	0.033754800097085536
7	16.964458400034346	stim	30		2	unambiguous	left	preferred	66.0	33.0		44.32536020001862	0.033000299939885736
7	16.99745869997423	stim	31		2	unambiguous	left	preferred	66.0	33.0		44.35836049995851	0.033337100059725344
7	17.030795800033957	stim	32		2	unambiguous	left	preferred	66.0	33.0		44.39169760001823	0.03332669998053461
7	17.06412250001449	stim	33		2	unambiguous	left	preferred	66.0	33.0		44.42502429999877	0.03362110001035035
7	17.09774360002484	stim	34		2	unambiguous	left	preferred	66.0	33.0		44.45864540000912	0.03386649989988655
7	17.13161009992473	stim	35		2	unambiguous	left	preferred	66.0	33.0		44.492511899909005	0.03444010007660836
7	17.166050200001337	stim	36		2	unambiguous	left	preferred	66.0	33.0		44.52695199998561	0.03311540000140667
7	17.199165600002743	stim	37		2	unambiguous	left	preferred	66.0	33.0		44.56006739998702	0.03353279992006719
7	17.23269839992281	stim	38		2	unambiguous	left	preferred	66.0	33.0		44.59360019990709	0.03344440006185323
7	17.266142799984664	stim	39		2	unambiguous	left	preferred	66.0	33.0		44.62704459996894	0.033211100031621754
7	17.299353900016285	stim	40		2	unambiguous	left	preferred	66.0	33.0		44.66025570000056	0.03362240002024919
7	17.332976300036535	stim	41		2	unambiguous	left	preferred	66.0	33.0		44.69387810002081	0.03378329996485263
7	17.366759600001387	stim	42		2	unambiguous	left	preferred	66.0	33.0		44.727661399985664	0.033142099971883
7	17.39990169997327	stim	43		2	unambiguous	left	preferred	66.0	33.0		44.76080349995755	0.03337019996251911
7	17.43327189993579	stim	44		2	unambiguous	left	preferred	66.0	33.0		44.794173699920066	0.03395690000616014
7	17.46722879994195	stim	45		2	unambiguous	left	preferred	66.0	33.0		44.828130599926226	0.033504200051538646
7	17.500732999993488	stim	46		2	unambiguous	left	preferred	66.0	33.0		44.861634799977764	0.03318959998432547
7	17.533922599977814	stim	47		2	unambiguous	left	preferred	66.0	33.0		44.89482439996209	0.03391580004245043
7	17.567838400020264	stim	48		2	unambiguous	left	preferred	66.0	33.0		44.92874020000454	0.032950099906884134
7	17.600788499927148	stim	49		2	unambiguous	left	preferred	66.0	33.0		44.961690299911425	0.03336410003248602
7	17.634152599959634	stim	50		2	unambiguous	left	preferred	66.0	33.0		44.99505439994391	0.03328440000768751
7	17.66743699996732	stim	51		2	unambiguous	left	preferred	66.0	33.0		45.0283387999516	0.03358839999418706
7	17.70102539996151	stim	52		2	unambiguous	left	preferred	66.0	33.0		45.061927199945785	0.033805100014433265
7	17.734830499975942	stim	53		2	unambiguous	left	preferred	66.0	33.0		45.09573229996022	0.033307099947705865
7	17.768137599923648	stim	54		2	unambiguous	left	preferred	66.0	33.0		45.129039399907924	0.03741660004016012
7	17.805554199963808	stim	55		2	unambiguous	left	preferred	66.0	33.0		45.166455999948084	0.029540600022301078
7	17.83509479998611	stim	56		2	unambiguous	left	preferred	66.0	33.0		45.195996599970385	0.03380770003423095
7	17.86890250002034	stim	57		2	unambiguous	left	preferred	66.0	33.0		45.229804300004616	0.033247999963350594
7	17.90215049998369	stim	58		2	unambiguous	left	preferred	66.0	33.0		45.26305229996797	0.03340469999238849
7	17.93555519997608	stim	59		2	unambiguous	left	preferred	66.0	33.0		45.296456999960355	0.03306980000343174
7	17.96862499997951	stim	60		2	unambiguous	left	preferred	66.0	33.0		45.32952679996379	0.03902829997241497
7	18.007653299951926	stim	61		2	unambiguous	left	preferred	66.0	33.0		45.3685550999362	0.04811229999177158
7	18.055765599943697	stim	62		2	unambiguous	left	preferred	66.0	33.0		45.416667399927974	0.049959100084379315
7	18.105724700028077	stim	63		2	unambiguous	left	preferred	66.0	33.0		45.46662650001235	0.03322059998754412
7	18.13894530001562	stim	64		2	unambiguous	left	preferred	66.0	33.0		45.4998470999999	0.029972199932672083
7	18.168917499948293	stim	65		2	unambiguous	left	preferred	66.0	33.0		45.52981929993257	0.03385500004515052
8	18.202772499993443	stim	0		2	unambiguous	left	preferred	69.0	99.0		45.56367429997772	0.03644769999664277
8	18.239220199990086	stim	1		2	unambiguous	left	preferred	69.0	99.0		45.60012199997436	0.03340720001142472
8	18.27262740000151	stim	2		2	unambiguous	left	preferred	69.0	99.0		45.63352919998579	0.033351599937304854
8	18.305978999938816	stim	3		2	unambiguous	left	preferred	69.0	99.0		45.66688079992309	0.03355000005103648
8	18.339528999989852	stim	4		2	unambiguous	left	preferred	69.0	99.0		45.70043079997413	0.05015499994624406
8	18.389683999936096	stim	5		2	unambiguous	left	preferred	69.0	99.0		45.75058579992037	0.033671600045636296
8	18.423355599981733	stim	6		2	unambiguous	left	preferred	69.0	99.0		45.78425739996601	0.0299848000286147
8	18.453340400010347	stim	7		2	unambiguous	left	preferred	69.0	99.0		45.814242199994624	0.03632179996930063
8	18.489662199979648	stim	8		2	unambiguous	left	preferred	69.0	99.0		45.850563999963924	0.03330360003747046
8	18.52296580001712	stim	9		2	unambiguous	left	preferred	69.0	99.0		45.883867600001395	0.033406300004571676
8	18.55637210002169	stim	10		2	unambiguous	left	preferred	69.0	99.0		45.917273900005966	0.03328309999778867
8	18.58965520001948	stim	11		2	unambiguous	left	preferred	69.0	99.0		45.950557000003755	0.03366549999918789
8	18.623320700018667	stim	12		2	unambiguous	left	preferred	69.0	99.0		45.98422250000294	0.033007799996994436
8	18.65632850001566	stim	13		2	unambiguous	left	preferred	69.0	99.0		46.01723029999994	0.03381799999624491
8	18.690146500011906	stim	14		2	unambiguous	left	preferred	69.0	99.0		46.05104829999618	0.04980149993207306
8	18.73994799994398	stim	15		0	unambiguous	left	preferred	69.0	99.0		46.100849799928255	26.035242600017227
8	44.775190599961206	left	15	f	2	unambiguous	left	preferred	69.0	99.0	0.18512700009159744	72.13609239994548	-25.986675999942236
8	18.78851460001897	stim	16		2	unambiguous	left	preferred	69.0	99.0		46.14941640000325	0.03454469994176179
8	18.823059299960732	stim	17		2	unambiguous	left	preferred	69.0	99.0		46.18396109994501	0.034954700036905706
8	18.858013999997638	stim	18		2	unambiguous	left	preferred	69.0	99.0		46.218915799981914	0.031653599929995835
8	18.889667599927634	stim	19		2	unambiguous	left	preferred	69.0	99.0		46.25056939991191	0.033348700031638145
8	18.923016299959272	stim	20		2	unambiguous	left	preferred	69.0	99.0		46.28391809994355	0.033227200037799776
8	18.956243499997072	stim	21		2	unambiguous	left	preferred	69.0	99.0		46.31714529998135	0.05025329999625683
8	19.00649679999333	stim	22		2	unambiguous	left	preferred	69.0	99.0		46.367398599977605	0.033259599935263395
8	19.039756399928592	stim	23		2	unambiguous	left	preferred	69.0	99.0		46.40065819991287	0.033252399996854365
8	19.073008799925447	stim	24		2	unambiguous	left	preferred	69.0	99.0		46.43391059990972	0.03324710007291287
8	19.10625589999836	stim	25		2	unambiguous	left	preferred	69.0	99.0		46.467157699982636	0.03333489992655814
8	19.139590799924918	stim	26		2	unambiguous	left	preferred	69.0	99.0		46.500492599909194	0.03345340001396835
8	19.173044199938886	stim	27		2	unambiguous	left	preferred	69.0	99.0		46.53394599992316	0.033336900058202446
8	19.20638109999709	stim	28		2	unambiguous	left	preferred	69.0	99.0		46.567282899981365	0.033616999979130924
8	19.23999809997622	stim	29		2	unambiguous	left	preferred	69.0	99.0		46.600899899960496	0.033196300035342574
8	19.273194400011562	stim	30		2	unambiguous	left	preferred	69.0	99.0		46.63409619999584	0.03326369996648282
8	19.306458099978045	stim	31		2	unambiguous	left	preferred	69.0	99.0		46.66735989996232	0.03376709995791316
8	19.340225199935958	stim	32		2	unambiguous	left	preferred	69.0	99.0		46.701126999920234	0.03429199999663979
8	19.374517199932598	stim	33		2	unambiguous	left	preferred	69.0	99.0		46.735418999916874	0.032771000056527555
8	19.407288199989125	stim	34		2	unambiguous	left	preferred	69.0	99.0		46.7681899999734	0.03411639994010329
8	19.44140459992923	stim	35		2	unambiguous	left	preferred	69.0	99.0		46.802306399913505	0.03248330007772893
8	19.473887900006957	stim	36		2	unambiguous	left	preferred	69.0	99.0		46.834789699991234	0.034151799976825714
8	19.508039699983783	stim	37		2	unambiguous	left	preferred	69.0	99.0		46.86894149996806	0.03244270000141114
8	19.540482399985194	stim	38		2	unambiguous	left	preferred	69.0	99.0		46.90138419996947	0.033351499936543405
8	19.573833899921738	stim	39		2	unambiguous	left	preferred	69.0	99.0		46.934735699906014	0.03432730003260076
8	19.60816119995434	stim	40		2	unambiguous	left	preferred	69.0	99.0		46.969062999938615	0.0345463000703603
8	19.6427075000247	stim	41		2	unambiguous	left	preferred	69.0	99.0		47.003609300008975	0.03242599999066442
8	19.675133500015363	stim	42		2	unambiguous	left	preferred	69.0	99.0		47.03603529999964	0.03335049992892891
8	19.708483999944292	stim	43		2	unambiguous	left	preferred	69.0	99.0		47.06938579992857	0.03334359999280423
8	19.741827599937096	stim	44		2	unambiguous	left	preferred	69.0	99.0		47.10272939992137	0.033511499990709126
8	19.775339099927805	stim	45		2	unambiguous	left	preferred	69.0	99.0		47.13624089991208	0.03373650007415563
8	19.80907560000196	stim	46		2	unambiguous	left	preferred	69.0	99.0		47.16997739998624	0.03399669995997101
8	19.843072299961932	stim	47		2	unambiguous	left	preferred	69.0	99.0		47.20397409994621	0.03292899997904897
8	19.87600129994098	stim	48		2	unambiguous	left	preferred	69.0	99.0		47.23690309992526	0.03333460004068911
8	19.90933589998167	stim	49		2	unambiguous	left	preferred	69.0	99.0		47.270237699965946	0.03326019993983209
8	19.942596099921502	stim	50		2	unambiguous	left	preferred	69.0	99.0		47.30349789990578	0.03336430003400892
8	19.97596039995551	stim	51		2	unambiguous	left	preferred	69.0	99.0		47.33686219993979	0.03348680003546178
8	20.009447199990973	stim	52		2	unambiguous	left	preferred	69.0	99.0		47.37034899997525	0.034342800034210086
8	20.043790000025183	stim	53		2	unambiguous	left	preferred	69.0	99.0		47.40469180000946	0.03233989991713315
8	20.076129899942316	stim	54		2	unambiguous	left	preferred	69.0	99.0		47.43703169992659	0.033322300063446164
8	20.109452200005762	stim	55		2	unambiguous	left	preferred	69.0	99.0		47.47035399999004	0.033304099924862385
8	20.142756299930625	stim	56		2	unambiguous	left	preferred	69.0	99.0		47.5036580999149	0.033306000055745244
8	20.17606229998637	stim	57		2	unambiguous	left	preferred	69.0	99.0		47.536964099970646	0.03357600001618266
8	20.209638300002553	stim	58		2	unambiguous	left	preferred	69.0	99.0		47.57054009998683	0.03372139995917678
8	20.24335969996173	stim	59		2	unambiguous	left	preferred	69.0	99.0		47.604261499946006	0.03310200001578778
8	20.276461699977517	stim	60		2	unambiguous	left	preferred	69.0	99.0		47.63736349996179	0.033321799943223596
8	20.30978349992074	stim	61		2	unambiguous	left	preferred	69.0	99.0		47.67068529990502	0.033304300042800605
8	20.34308779996354	stim	62		2	unambiguous	left	preferred	69.0	99.0		47.70398959994782	0.0332856000168249
8	20.376373399980366	stim	63		2	unambiguous	left	preferred	69.0	99.0		47.73727519996464	0.03330949996598065
8	20.409682899946347	stim	64		2	unambiguous	left	preferred	69.0	99.0		47.77058469993062	0.03364590008277446
8	20.44332880002912	stim	65		2	unambiguous	left	preferred	69.0	99.0		47.8042306000134	0.03356729994993657
8	20.476896099979058	stim	66		2	unambiguous	left	preferred	69.0	99.0		47.837797899963334	0.032853999990038574
8	20.509750099969096	stim	67		2	unambiguous	left	preferred	69.0	99.0		47.87065189995337	0.03336879995185882
8	20.543118899920955	stim	68		2	unambiguous	left	preferred	69.0	99.0		47.90402069990523	0.033338400069624186
9	20.57645729999058	stim	0		2	unambiguous	left	preferred	47.0	168.0		47.937359099974856	0.033692199969664216
9	20.610149499960244	stim	1		2	unambiguous	left	preferred	47.0	168.0		47.97105129994452	0.033564900048077106
9	20.64371440000832	stim	2		2	unambiguous	left	preferred	47.0	168.0		48.0046161999926	0.03430389997083694
9	20.678018299979158	stim	3		2	unambiguous	left	preferred	47.0	168.0		48.038920099963434	0.03249989997129887
9	20.710518199950457	stim	4		2	unambiguous	left	preferred	47.0	168.0		48.07141999993473	0.03325720003340393
9	20.74377539998386	stim	5		2	unambiguous	left	preferred	47.0	168.0		48.10467719996814	0.033551499946042895
9	20.777326899929903	stim	6		2	unambiguous	left	preferred	47.0	168.0		48.13822869991418	0.033245300059206784
9	20.81057219998911	stim	7		2	unambiguous	left	preferred	47.0	168.0		48.17147399997339	0.03329439996741712
9	20.843866599956527	stim	8		2	unambiguous	left	preferred	47.0	168.0		48.204768399940804	0.03382530005183071
9	20.877691900008358	stim	9		2	unambiguous	left	preferred	47.0	168.0		48.238593699992634	0.033046199940145016
9	20.910738099948503	stim	10		2	unambiguous	left	preferred	47.0	168.0		48.27163989993278	0.03346250008326024
9	20.944200600031763	stim	11		2	unambiguous	left	preferred	47.0	168.0		48.30510240001604	0.03334959992207587
9	20.97755019995384	stim	12		2	unambiguous	left	preferred	47.0	168.0		48.338451999938115	0.033801899990066886
9	21.011352099943906	stim	13		2	unambiguous	left	preferred	47.0	168.0		48.37225389992818	0.03341590007767081
9	21.044768000021577	stim	14		2	unambiguous	left	preferred	47.0	168.0		48.40566980000585	0.03381499997340143
9	21.07858299999498	stim	15		2	unambiguous	left	preferred	47.0	168.0		48.439484799979255	0.03307869995478541
9	21.111661699949764	stim	16		2	unambiguous	left	preferred	47.0	168.0		48.47256349993404	0.033283700002357364
9	21.14494539995212	stim	17		2	unambiguous	left	preferred	47.0	168.0		48.5058471999364	0.03336930007208139
9	21.178314700024202	stim	18		2	unambiguous	left	preferred	47.0	168.0		48.53921650000848	0.03354340000078082
9	21.211858100024983	stim	19		2	unambiguous	left	preferred	47.0	168.0		48.57275990000926	0.033344099996611476
9	21.245202200021595	stim	20		2	unambiguous	left	preferred	47.0	168.0		48.60610400000587	0.033665900002233684
9	21.27886810002383	stim	21		2	unambiguous	left	preferred	47.0	168.0		48.639769900008105	0.033256599912419915
9	21.31212469993625	stim	22		2	unambiguous	left	preferred	47.0	168.0		48.673026499920525	0.03326500009279698
9	21.345389700029045	stim	23		2	unambiguous	left	preferred	47.0	168.0		48.70629150001332	0.033406600006856024
9	21.3787963000359	stim	24		2	unambiguous	left	preferred	47.0	168.0		48.73969810002018	0.03337279998231679
9	21.412169100018218	stim	25		2	unambiguous	left	preferred	47.0	168.0		48.773070900002494	0.03381809999700636
9	21.445987200015225	stim	26		2	unambiguous	left	preferred	47.0	168.0		48.8068889999995	0.03355349996127188
9	21.479540699976496	stim	27		2	unambiguous	left	preferred	47.0	168.0		48.84044249996077	0.0338620999827981
9	21.513402799959294	stim	28		2	unambiguous	left	preferred	47.0	168.0		48.87430459994357	0.03270550002343953
9	21.546108299982734	stim	29		2	unambiguous	left	preferred	47.0	168.0		48.90701009996701	0.03341319994069636
9	21.57952149992343	stim	30		2	unambiguous	left	preferred	47.0	168.0		48.94042329990771	0.033799200085923076
9	21.613320700009353	stim	31		2	unambiguous	left	preferred	47.0	168.0		48.97422249999363	0.033531100023537874
9	21.64685180003289	stim	32		2	unambiguous	left	preferred	47.0	168.0		49.00775360001717	0.0332473999587819
9	21.680099199991673	stim	33		2	unambiguous	left	preferred	47.0	168.0		49.04100099997595	0.03426690003834665
9	21.71436610003002	stim	34		2	unambiguous	left	preferred	47.0	168.0		49.075267900014296	0.032610700000077486
9	21.746976800030097	stim	35		2	unambiguous	left	preferred	47.0	168.0		49.107878600014374	0.033651999896392226
9	21.78062879992649	stim	36		2	unambiguous	left	preferred	47.0	168.0		49.141530599910766	0.03332290006801486
9	21.813951699994504	stim	37		2	unambiguous	left	preferred	47.0	168.0		49.17485349997878	0.033490899950265884
9	21.84744259994477	stim	38		2	unambiguous	left	preferred	47.0	168.0		49.20834439992905	0.03327280003577471
9	21.880715399980545	stim	39		2	unambiguous	left	preferred	47.0	168.0		49.24161719996482	0.03406229999382049
9	21.914777699974366	stim	40		2	unambiguous	left	preferred	47.0	168.0		49.27567949995864	0.03313600004184991
9	21.947913700016215	stim	41		2	unambiguous	left	preferred	47.0	168.0		49.30881550000049	0.03338899998925626
9	21.98130270000547	stim	42		2	unambiguous	left	preferred	47.0	168.0		49.34220449998975	0.03376849996857345
9	22.015071199974045	stim	43		2	unambiguous	left	preferred	47.0	168.0		49.37597299995832	0.03357510000932962
9	22.048646299983375	stim	44		2	unambiguous	left	preferred	47.0	168.0		49.40954809996765	0.03323659999296069
9	22.081882899976335	stim	45		2	unambiguous	left	preferred	47.0	168.0		49.44278469996061	0.03377800004091114
9	22.115660900017247	stim	46		2	unambiguous	left	preferred	47.0	168.0		49.47656270000152	0.03306759998667985
0	22.148728500003926	stim	0		94	break	break	preferred	1.0	0.0		49.5096302999882	1.6542253999505192
