trial_nr	onset	event_type	phase	response	nr_frames	block_type	trial_type	response_hand	phase_length	last_frame	key_duration	onset_abs	duration
0	0.010556799941696227	stim	0		0	break	break	preferred	1.0	0.0		4.698146699927747	3.181330500054173
0	3.1918872999958694	break	0	space	0	break	break	preferred	1.0	0.0	0.13753129995893687	7.87947719998192	0.3083907999098301
0	3.5002780999056995	break	0	space	599	break	break	preferred	1.0	0.0	0.11650100001133978	8.18786799989175	6.565076300059445
1	10.065354399965145	stim	0		2	ambiguous	ambiguous	preferred	600.0	30.0		14.752944299951196	0.033261300064623356
1	10.098615700029768	stim	1		2	ambiguous	ambiguous	preferred	600.0	30.0		14.786205600015819	0.033897899906151
1	10.132513599935919	stim	2		2	ambiguous	ambiguous	preferred	600.0	30.0		14.82010349992197	0.03326539997942746
1	10.165778999915347	stim	3		2	ambiguous	ambiguous	preferred	600.0	30.0		14.853368899901398	0.03356030001305044
1	10.199339299928397	stim	4		2	ambiguous	ambiguous	preferred	600.0	30.0		14.886929199914448	0.03344870009459555
1	10.232788000022992	stim	5		2	ambiguous	ambiguous	preferred	600.0	30.0		14.920377900009044	0.033609299920499325
1	10.266397299943492	stim	6		2	ambiguous	ambiguous	preferred	600.0	30.0		14.953987199929543	0.03318779997061938
1	10.299585099914111	stim	7		2	ambiguous	ambiguous	preferred	600.0	30.0		14.987174999900162	0.03336320002563298
1	10.332948299939744	stim	8		2	ambiguous	ambiguous	preferred	600.0	30.0		15.020538199925795	0.03361300006508827
1	10.366561300004832	stim	9		2	ambiguous	ambiguous	preferred	600.0	30.0		15.054151199990883	0.03334809991065413
1	10.399909399915487	stim	10		2	ambiguous	ambiguous	preferred	600.0	30.0		15.087499299901538	0.03336620004847646
1	10.433275599963963	stim	11		2	ambiguous	ambiguous	preferred	600.0	30.0		15.120865499950014	0.033341099973767996
1	10.466616699937731	stim	12		2	ambiguous	ambiguous	preferred	600.0	30.0		15.154206599923782	0.03532919997815043
1	10.501945899915881	stim	13		2	ambiguous	ambiguous	preferred	600.0	30.0		15.189535799901932	0.03356540005188435
1	10.535511299967766	stim	14		2	ambiguous	ambiguous	preferred	600.0	30.0		15.223101199953817	0.033293599961325526
1	10.568804899929091	stim	15		2	ambiguous	ambiguous	preferred	600.0	30.0		15.256394799915142	0.03325189999304712
1	10.602056799922138	stim	16		2	ambiguous	ambiguous	preferred	600.0	30.0		15.28964669990819	0.03328020009212196
1	10.63533700001426	stim	17		2	ambiguous	ambiguous	preferred	600.0	30.0		15.322926900000311	0.03375959990080446
1	10.669096599915065	stim	18		2	ambiguous	ambiguous	preferred	600.0	30.0		15.356686499901116	0.03301970008760691
1	10.702116300002672	stim	19		2	ambiguous	ambiguous	preferred	600.0	30.0		15.389706199988723	0.03333070001099259
1	10.735447000013664	stim	20		2	ambiguous	ambiguous	preferred	600.0	30.0		15.423036899999715	0.033317199908196926
1	10.768764199921861	stim	21		2	ambiguous	ambiguous	preferred	600.0	30.0		15.456354099907912	0.03333190002012998
1	10.802096099941991	stim	22		2	ambiguous	ambiguous	preferred	600.0	30.0		15.489685999928042	0.033723399974405766
1	10.835819499916397	stim	23		2	ambiguous	ambiguous	preferred	600.0	30.0		15.523409399902448	0.03373970009852201
1	10.869559200014919	stim	24		2	ambiguous	ambiguous	preferred	600.0	30.0		15.55714910000097	0.03331560001242906
1	10.902874800027348	stim	25		2	ambiguous	ambiguous	preferred	600.0	30.0		15.5904647000134	0.03354169998783618
1	10.936416500015184	stim	26		2	ambiguous	ambiguous	preferred	600.0	30.0		15.624006400001235	0.03394260001368821
1	10.970359100028872	stim	27		2	ambiguous	ambiguous	preferred	600.0	30.0		15.657949000014924	0.03361779998522252
1	11.003976900014095	stim	28		2	ambiguous	ambiguous	preferred	600.0	30.0		15.691566800000146	0.03387959999963641
1	11.037856500013731	stim	29		2	ambiguous	ambiguous	preferred	600.0	30.0		15.725446399999782	0.034207999939098954
1	11.07206449995283	stim	30		2	ambiguous	ambiguous	preferred	600.0	30.0		15.759654399938881	0.033729600021615624
1	11.105794099974446	stim	31		2	ambiguous	ambiguous	preferred	600.0	30.0		15.793383999960497	0.033575300010852516
1	11.139369399985299	stim	32		2	ambiguous	ambiguous	preferred	600.0	30.0		15.82695929997135	0.03382260003127158
1	11.17319200001657	stim	33		2	ambiguous	ambiguous	preferred	600.0	30.0		15.860781900002621	0.033868499915115535
1	11.207060499931686	stim	34		2	ambiguous	ambiguous	preferred	600.0	30.0		15.894650399917737	0.033403499983251095
1	11.240463999914937	stim	35		2	ambiguous	ambiguous	preferred	600.0	30.0		15.928053899900988	0.03343410009983927
1	11.273898100014776	stim	36		2	ambiguous	ambiguous	preferred	600.0	30.0		15.961488000000827	0.03408289991784841
1	11.307980999932624	stim	37		2	ambiguous	ambiguous	preferred	600.0	30.0		15.995570899918675	0.03336300002411008
1	11.341343999956734	stim	38		2	ambiguous	ambiguous	preferred	600.0	30.0		16.028933899942786	0.03332110005430877
1	11.374665100011043	stim	39		2	ambiguous	ambiguous	preferred	600.0	30.0		16.062254999997094	0.033307199948467314
1	11.40797229995951	stim	40		2	ambiguous	ambiguous	preferred	600.0	30.0		16.09556219994556	0.033547200029715896
1	11.441519499989226	stim	41		2	ambiguous	ambiguous	preferred	600.0	30.0		16.129109399975277	0.033324799966067076
1	11.474844299955294	stim	42		2	ambiguous	ambiguous	preferred	600.0	30.0		16.162434199941345	0.03335250006057322
1	11.508196800015867	stim	43		2	ambiguous	ambiguous	preferred	600.0	30.0		16.195786700001918	0.033795799943618476
1	11.541992599959485	stim	44		2	ambiguous	ambiguous	preferred	600.0	30.0		16.229582499945536	0.033291200059466064
1	11.575283800018951	stim	45		2	ambiguous	ambiguous	preferred	600.0	30.0		16.262873700005002	0.03334079997148365
1	11.608624599990435	stim	46		2	ambiguous	ambiguous	preferred	600.0	30.0		16.296214499976486	0.033311399980448186
1	11.641935999970883	stim	47		2	ambiguous	ambiguous	preferred	600.0	30.0		16.329525899956934	0.03346199996303767
1	11.67539799993392	stim	48		2	ambiguous	ambiguous	preferred	600.0	30.0		16.362987899919972	0.03341470006853342
1	11.708812700002454	stim	49		2	ambiguous	ambiguous	preferred	600.0	30.0		16.396402599988505	0.03343349997885525
1	11.74224619998131	stim	50		2	ambiguous	ambiguous	preferred	600.0	30.0		16.42983609996736	0.03346479998435825
1	11.775710999965668	stim	51		2	ambiguous	ambiguous	preferred	600.0	30.0		16.46330089995172	0.03329639998264611
1	11.809007399948314	stim	52		2	ambiguous	ambiguous	preferred	600.0	30.0		16.496597299934365	0.033588799997232854
1	11.842596199945547	stim	53		2	ambiguous	ambiguous	preferred	600.0	30.0		16.530186099931598	0.03349649999290705
1	11.876092699938454	stim	54		2	ambiguous	ambiguous	preferred	600.0	30.0		16.563682599924505	0.03330030001234263
1	11.909392999950796	stim	55		2	ambiguous	ambiguous	preferred	600.0	30.0		16.596982899936847	0.033506000065244734
1	11.942899000016041	stim	56		2	ambiguous	ambiguous	preferred	600.0	30.0		16.630488900002092	0.033460999955423176
1	11.976359999971464	stim	57		2	ambiguous	ambiguous	preferred	600.0	30.0		16.663949899957515	0.03329299995675683
1	12.009652999928221	stim	58		2	ambiguous	ambiguous	preferred	600.0	30.0		16.697242899914272	0.03380309999920428
1	12.043456099927425	stim	59		2	ambiguous	ambiguous	preferred	600.0	30.0		16.731045999913476	0.03375860000960529
1	12.07721469993703	stim	60		2	ambiguous	ambiguous	preferred	600.0	30.0		16.76480459992308	0.03293640003539622
1	12.110151099972427	stim	61		2	ambiguous	ambiguous	preferred	600.0	30.0		16.797740999958478	0.03341599996201694
1	12.143567099934444	stim	62		2	ambiguous	ambiguous	preferred	600.0	30.0		16.831156999920495	0.03370680008083582
1	12.17727390001528	stim	63		2	ambiguous	ambiguous	preferred	600.0	30.0		16.86486380000133	0.03333629993721843
1	12.210610199952498	stim	64		2	ambiguous	ambiguous	preferred	600.0	30.0		16.89820009993855	0.03404270007740706
1	12.244652900029905	stim	65		2	ambiguous	ambiguous	preferred	600.0	30.0		16.932242800015956	0.03354159998707473
1	12.27819450001698	stim	66		2	ambiguous	ambiguous	preferred	600.0	30.0		16.96578440000303	0.0331103999633342
1	12.311304899980314	stim	67		2	ambiguous	ambiguous	preferred	600.0	30.0		16.998894799966365	0.034014099976047873
1	12.345318999956362	stim	68		2	ambiguous	ambiguous	preferred	600.0	30.0		17.032908899942413	0.033296999987214804
1	12.378615999943577	stim	69		2	ambiguous	ambiguous	preferred	600.0	30.0		17.066205899929628	0.03338090004399419
1	12.411996899987571	stim	70		2	ambiguous	ambiguous	preferred	600.0	30.0		17.099586799973622	0.03334750002250075
1	12.445344400010072	stim	71		2	ambiguous	ambiguous	preferred	600.0	30.0		17.132934299996123	0.03341459995135665
1	12.478758999961428	stim	72		2	ambiguous	ambiguous	preferred	600.0	30.0		17.16634889994748	0.03348169999662787
1	12.512240699958056	stim	73		2	ambiguous	ambiguous	preferred	600.0	30.0		17.199830599944107	0.03309709997847676
1	12.545337799936533	stim	74		2	ambiguous	ambiguous	preferred	600.0	30.0		17.232927699922584	0.0333557000849396
1	12.578693500021473	stim	75		2	ambiguous	ambiguous	preferred	600.0	30.0		17.266283400007524	0.03367659996729344
1	12.612370099988766	stim	76		2	ambiguous	ambiguous	preferred	600.0	30.0		17.299959999974817	0.033721899962984025
1	12.64609199995175	stim	77		2	ambiguous	ambiguous	preferred	600.0	30.0		17.3336818999378	0.04966969997622073
1	12.69576169992797	stim	78		2	ambiguous	ambiguous	preferred	600.0	30.0		17.383351599914022	0.033337200060486794
1	12.729098899988458	stim	79		2	ambiguous	ambiguous	preferred	600.0	30.0		17.41668879997451	0.033253700006753206
1	12.76235259999521	stim	80		2	ambiguous	ambiguous	preferred	600.0	30.0		17.449942499981262	0.03366910002660006
1	12.79602170002181	stim	81		2	ambiguous	ambiguous	preferred	600.0	30.0		17.483611600007862	0.03335879999212921
1	12.82938050001394	stim	82		2	ambiguous	ambiguous	preferred	600.0	30.0		17.51697039999999	0.03337329998612404
1	12.862753800000064	stim	83		2	ambiguous	ambiguous	preferred	600.0	30.0		17.550343699986115	0.03401019994635135
1	12.896763999946415	stim	84		2	ambiguous	ambiguous	preferred	600.0	30.0		17.584353899932466	0.032667400082573295
1	12.929431400028989	stim	85		2	ambiguous	ambiguous	preferred	600.0	30.0		17.61702130001504	0.0338313999818638
1	12.963262800010853	stim	86		2	ambiguous	ambiguous	preferred	600.0	30.0		17.650852699996904	0.03306049993261695
1	12.99632329994347	stim	87		2	ambiguous	ambiguous	preferred	600.0	30.0		17.68391319992952	0.03376730007585138
1	13.03009060001932	stim	88		2	ambiguous	ambiguous	preferred	600.0	30.0		17.717680500005372	0.033311399980448186
1	13.063401999999769	stim	89		2	ambiguous	ambiguous	preferred	600.0	30.0		17.75099189998582	0.03391140000894666
1	13.097313400008716	stim	90		2	ambiguous	ambiguous	preferred	600.0	30.0		17.784903299994767	0.033358899992890656
1	13.130672300001606	stim	91		2	ambiguous	ambiguous	preferred	600.0	30.0		17.818262199987657	0.033382599940523505
1	13.16405489994213	stim	92		2	ambiguous	ambiguous	preferred	600.0	30.0		17.85164479992818	0.0332622000714764
1	13.197317100013606	stim	93		2	ambiguous	ambiguous	preferred	600.0	30.0		17.884906999999657	0.03334470000118017
1	13.230661800014786	stim	94		2	ambiguous	ambiguous	preferred	600.0	30.0		17.918251700000837	0.03347119991667569
1	13.264132999931462	stim	95		2	ambiguous	ambiguous	preferred	600.0	30.0		17.951722899917513	0.03348730003926903
1	13.297620299970731	stim	96		2	ambiguous	ambiguous	preferred	600.0	30.0		17.985210199956782	0.03367399994749576
1	13.331294299918227	stim	97		2	ambiguous	ambiguous	preferred	600.0	30.0		18.018884199904278	0.03321370005141944
1	13.364507999969646	stim	98		2	ambiguous	ambiguous	preferred	600.0	30.0		18.052097899955697	0.03330350003670901
1	13.397811500006355	stim	99		2	ambiguous	ambiguous	preferred	600.0	30.0		18.085401399992406	0.03331089997664094
1	13.431122399982996	stim	100		2	ambiguous	ambiguous	preferred	600.0	30.0		18.118712299969047	0.033452500007115304
1	13.464574899990112	stim	101		2	ambiguous	ambiguous	preferred	600.0	30.0		18.152164799976163	0.03335799998603761
1	13.49793289997615	stim	102		2	ambiguous	ambiguous	preferred	600.0	30.0		18.1855227999622	0.03367130004335195
1	13.531604200019501	stim	103		2	ambiguous	ambiguous	preferred	600.0	30.0		18.219194100005552	0.03301169991027564
1	13.564615899929777	stim	104		2	ambiguous	ambiguous	preferred	600.0	30.0		18.252205799915828	0.03353730007074773
1	13.598153200000525	stim	105		2	ambiguous	ambiguous	preferred	600.0	30.0		18.285743099986576	0.03309289994649589
1	13.63124609994702	stim	106		2	ambiguous	ambiguous	preferred	600.0	30.0		18.31883599993307	0.03334830002859235
1	13.664594399975613	stim	107		2	ambiguous	ambiguous	preferred	600.0	30.0		18.352184299961664	0.033316300017759204
1	13.697910699993372	stim	108		2	ambiguous	ambiguous	preferred	600.0	30.0		18.385500599979423	0.03354189998935908
1	13.731452599982731	stim	109		2	ambiguous	ambiguous	preferred	600.0	30.0		18.419042499968782	0.033600399969145656
1	13.765052999951877	stim	110		2	ambiguous	ambiguous	preferred	600.0	30.0		18.452642899937928	0.03397039999254048
1	13.799023399944417	stim	111		2	ambiguous	ambiguous	preferred	600.0	30.0		18.486613299930468	0.033723699976690114
1	13.832747099921107	stim	112		2	ambiguous	ambiguous	preferred	600.0	30.0		18.52033699990716	0.033289700048044324
1	13.866036799969152	stim	113		2	ambiguous	ambiguous	preferred	600.0	30.0		18.553626699955203	0.033350300043821335
1	13.899387100012973	stim	114		2	ambiguous	ambiguous	preferred	600.0	30.0		18.586976999999024	0.03358329995535314
1	13.932970399968326	stim	115		2	ambiguous	ambiguous	preferred	600.0	30.0		18.620560299954377	0.033231399953365326
1	13.966201799921691	stim	116		2	ambiguous	ambiguous	preferred	600.0	30.0		18.653791699907742	0.03325580002274364
1	13.999457599944435	stim	117		2	ambiguous	ambiguous	preferred	600.0	30.0		18.687047499930486	0.03338769997935742
1	14.032845299923792	stim	118		2	ambiguous	ambiguous	preferred	600.0	30.0		18.720435199909844	0.033307200064882636
1	14.066152499988675	stim	119		2	ambiguous	ambiguous	preferred	600.0	30.0		18.753742399974726	0.03333919995930046
1	14.099491699947976	stim	120		2	ambiguous	ambiguous	preferred	600.0	30.0		18.787081599934027	0.033372499980032444
1	14.132864199928008	stim	121		2	ambiguous	ambiguous	preferred	600.0	30.0		18.82045409991406	0.03363710001576692
1	14.166501299943775	stim	122		2	ambiguous	ambiguous	preferred	600.0	30.0		18.854091199929826	0.03359810006804764
1	14.200099400011823	stim	123		2	ambiguous	ambiguous	preferred	600.0	30.0		18.887689299997874	0.03335539996623993
1	14.233454799978063	stim	124		2	ambiguous	ambiguous	preferred	600.0	30.0		18.921044699964114	0.03501190000679344
1	14.268466699984856	stim	125		2	ambiguous	ambiguous	preferred	600.0	30.0		18.956056599970907	0.03357780002988875
1	14.302044500014745	stim	126		0	ambiguous	ambiguous	preferred	600.0	30.0		18.989634400000796	1.3479719999013469
1	15.650016499916092	ambiguous	126	j	2	ambiguous	ambiguous	preferred	600.0	30.0	2.15093710005749	20.337606399902143	-1.2964311999967322
1	14.35358529991936	stim	127		2	ambiguous	ambiguous	preferred	600.0	30.0		19.04117519990541	0.031680500018410385
1	14.38526579993777	stim	128		2	ambiguous	ambiguous	preferred	600.0	30.0		19.07285569992382	0.03334389999508858
1	14.418609699932858	stim	129		2	ambiguous	ambiguous	preferred	600.0	30.0		19.10619959991891	0.03330480004660785
1	14.451914499979466	stim	130		2	ambiguous	ambiguous	preferred	600.0	30.0		19.139504399965517	0.033321699942462146
1	14.485236199921928	stim	131		2	ambiguous	ambiguous	preferred	600.0	30.0		19.17282609990798	0.03345040010754019
1	14.518686600029469	stim	132		2	ambiguous	ambiguous	preferred	600.0	30.0		19.20627650001552	0.03335990000050515
1	14.552046500029974	stim	133		2	ambiguous	ambiguous	preferred	600.0	30.0		19.239636400016025	0.03329479997046292
1	14.585341300000437	stim	134		2	ambiguous	ambiguous	preferred	600.0	30.0		19.272931199986488	0.03328089998103678
1	14.618622199981473	stim	135		2	ambiguous	ambiguous	preferred	600.0	30.0		19.306212099967524	0.033436300000175834
1	14.65205849998165	stim	136		2	ambiguous	ambiguous	preferred	600.0	30.0		19.3396483999677	0.033418099978007376
1	14.685476599959657	stim	137		2	ambiguous	ambiguous	preferred	600.0	30.0		19.373066499945708	0.03314059996046126
1	14.718617199920118	stim	138		2	ambiguous	ambiguous	preferred	600.0	30.0		19.40620709990617	0.03352110006380826
1	14.752138299983926	stim	139		2	ambiguous	ambiguous	preferred	600.0	30.0		19.439728199969977	0.033378400024957955
1	14.785516700008884	stim	140		2	ambiguous	ambiguous	preferred	600.0	30.0		19.473106599994935	0.03314469999168068
1	14.818661400000565	stim	141		2	ambiguous	ambiguous	preferred	600.0	30.0		19.506251299986616	0.033674599952064455
1	14.85233599995263	stim	142		2	ambiguous	ambiguous	preferred	600.0	30.0		19.53992589993868	0.03334700001869351
1	14.885682999971323	stim	143		2	ambiguous	ambiguous	preferred	600.0	30.0		19.573272899957374	0.033367999945767224
1	14.91905099991709	stim	144		2	ambiguous	ambiguous	preferred	600.0	30.0		19.60664089990314	0.033348800032399595
1	14.95239979994949	stim	145		2	ambiguous	ambiguous	preferred	600.0	30.0		19.63998969993554	0.033468800014816225
1	14.985868599964306	stim	146		2	ambiguous	ambiguous	preferred	600.0	30.0		19.673458499950357	0.03398359997663647
1	15.019852199940942	stim	147		2	ambiguous	ambiguous	preferred	600.0	30.0		19.707442099926993	0.03305880003608763
1	15.05291099997703	stim	148		2	ambiguous	ambiguous	preferred	600.0	30.0		19.74050089996308	0.03306599997449666
1	15.085976999951527	stim	149		2	ambiguous	ambiguous	preferred	600.0	30.0		19.773566899937578	0.033311799983493984
1	15.11928879993502	stim	150		2	ambiguous	ambiguous	preferred	600.0	30.0		19.80687869992107	0.03371800004970282
1	15.153006799984723	stim	151		2	ambiguous	ambiguous	preferred	600.0	30.0		19.840596699970774	0.03388010000344366
1	15.186886899988167	stim	152		2	ambiguous	ambiguous	preferred	600.0	30.0		19.874476799974218	0.033210900030098855
1	15.220097800018266	stim	153		2	ambiguous	ambiguous	preferred	600.0	30.0		19.907687700004317	0.03329309995751828
1	15.253390899975784	stim	154		2	ambiguous	ambiguous	preferred	600.0	30.0		19.940980799961835	0.03367220005020499
1	15.28706310002599	stim	155		2	ambiguous	ambiguous	preferred	600.0	30.0		19.97465300001204	0.03335990000050515
1	15.320423000026494	stim	156		0	ambiguous	ambiguous	preferred	600.0	30.0		20.008012900012545	2.86602319998201
1	18.186446200008504	ambiguous	156	f	2	ambiguous	ambiguous	preferred	600.0	30.0	0.6225975999841467	22.874036099994555	-2.8157137000234798
1	15.370732499985024	stim	157		2	ambiguous	ambiguous	preferred	600.0	30.0		20.058322399971075	0.03335509996395558
1	15.40408759994898	stim	158		2	ambiguous	ambiguous	preferred	600.0	30.0		20.09167749993503	0.033277900074608624
1	15.437365500023589	stim	159		2	ambiguous	ambiguous	preferred	600.0	30.0		20.12495540000964	0.03331049997359514
1	15.470675999997184	stim	160		2	ambiguous	ambiguous	preferred	600.0	30.0		20.158265899983235	0.03331810003146529
1	15.503994100028649	stim	161		2	ambiguous	ambiguous	preferred	600.0	30.0		20.1915840000147	0.033582699950784445
1	15.537576799979433	stim	162		2	ambiguous	ambiguous	preferred	600.0	30.0		20.225166699965484	0.03312899998854846
1	15.570705799967982	stim	163		2	ambiguous	ambiguous	preferred	600.0	30.0		20.258295699954033	0.03349950001575053
1	15.604205299983732	stim	164		2	ambiguous	ambiguous	preferred	600.0	30.0		20.291795199969783	0.03368580003734678
1	15.63789110002108	stim	165		2	ambiguous	ambiguous	preferred	600.0	30.0		20.32548100000713	0.033763199928216636
1	15.671654299949296	stim	166		2	ambiguous	ambiguous	preferred	600.0	30.0		20.359244199935347	0.03363840002566576
1	15.705292699974962	stim	167		2	ambiguous	ambiguous	preferred	600.0	30.0		20.392882599961013	0.033275799942202866
1	15.738568499917164	stim	168		2	ambiguous	ambiguous	preferred	600.0	30.0		20.426158399903215	0.03378490009345114
1	15.772353400010616	stim	169		2	ambiguous	ambiguous	preferred	600.0	30.0		20.459943299996667	0.033618499990552664
1	15.805971900001168	stim	170		2	ambiguous	ambiguous	preferred	600.0	30.0		20.49356179998722	0.03312689997255802
1	15.839098799973726	stim	171		2	ambiguous	ambiguous	preferred	600.0	30.0		20.526688699959777	0.03355509997345507
1	15.872653899947181	stim	172		2	ambiguous	ambiguous	preferred	600.0	30.0		20.560243799933232	0.03340610000304878
1	15.90605999995023	stim	173		2	ambiguous	ambiguous	preferred	600.0	30.0		20.59364989993628	0.03337560000363737
1	15.939435599953867	stim	174		2	ambiguous	ambiguous	preferred	600.0	30.0		20.62702549993992	0.03400920005515218
1	15.97344480000902	stim	175		2	ambiguous	ambiguous	preferred	600.0	30.0		20.66103469999507	0.033822499914094806
1	16.007267299923114	stim	176		2	ambiguous	ambiguous	preferred	600.0	30.0		20.694857199909166	0.032963400008156896
1	16.04023069993127	stim	177		2	ambiguous	ambiguous	preferred	600.0	30.0		20.727820599917322	0.03352160006761551
1	16.073752299998887	stim	178		2	ambiguous	ambiguous	preferred	600.0	30.0		20.761342199984938	0.03345019998960197
1	16.10720249998849	stim	179		2	ambiguous	ambiguous	preferred	600.0	30.0		20.79479239997454	0.033357699983753264
1	16.140560199972242	stim	180		2	ambiguous	ambiguous	preferred	600.0	30.0		20.828150099958293	0.0332856000168249
1	16.173845799989067	stim	181		2	ambiguous	ambiguous	preferred	600.0	30.0		20.861435699975118	0.03370239993091673
1	16.207548199919984	stim	182		2	ambiguous	ambiguous	preferred	600.0	30.0		20.895138099906035	0.032967800041660666
1	16.240515999961644	stim	183		2	ambiguous	ambiguous	preferred	600.0	30.0		20.928105899947695	0.03369910002220422
1	16.27421509998385	stim	184		2	ambiguous	ambiguous	preferred	600.0	30.0		20.9618049999699	0.033932299935258925
1	16.308147399919108	stim	185		2	ambiguous	ambiguous	preferred	600.0	30.0		20.99573729990516	0.03346270008478314
1	16.34161010000389	stim	186		2	ambiguous	ambiguous	preferred	600.0	30.0		21.02919999998994	0.033397399936802685
1	16.375007499940693	stim	187		2	ambiguous	ambiguous	preferred	600.0	30.0		21.062597399926744	0.03397009999025613
1	16.40897759993095	stim	188		2	ambiguous	ambiguous	preferred	600.0	30.0		21.096567499917	0.03339080000296235
1	16.442368399933912	stim	189		2	ambiguous	ambiguous	preferred	600.0	30.0		21.129958299919963	0.03332970000337809
1	16.47569809993729	stim	190		2	ambiguous	ambiguous	preferred	600.0	30.0		21.16328799992334	0.03331890003755689
1	16.509016999974847	stim	191		2	ambiguous	ambiguous	preferred	600.0	30.0		21.196606899960898	0.033741499995812774
1	16.54275849997066	stim	192		2	ambiguous	ambiguous	preferred	600.0	30.0		21.23034839995671	0.03326309996191412
1	16.576021599932574	stim	193		2	ambiguous	ambiguous	preferred	600.0	30.0		21.263611499918625	0.03344760008621961
1	16.609469200018793	stim	194		2	ambiguous	ambiguous	preferred	600.0	30.0		21.297059100004844	0.033206499996595085
1	16.64267570001539	stim	195		2	ambiguous	ambiguous	preferred	600.0	30.0		21.33026560000144	0.03370299993548542
1	16.676378699950874	stim	196		2	ambiguous	ambiguous	preferred	600.0	30.0		21.363968599936925	0.033440600032918155
1	16.709819299983792	stim	197		2	ambiguous	ambiguous	preferred	600.0	30.0		21.397409199969843	0.033314500004053116
1	16.743133799987845	stim	198		2	ambiguous	ambiguous	preferred	600.0	30.0		21.430723699973896	0.033274299930781126
1	16.776408099918626	stim	199		2	ambiguous	ambiguous	preferred	600.0	30.0		21.463997999904677	0.03407140006311238
1	16.81047949998174	stim	200		2	ambiguous	ambiguous	preferred	600.0	30.0		21.49806939996779	0.03347479994408786
1	16.843954299925826	stim	201		2	ambiguous	ambiguous	preferred	600.0	30.0		21.531544199911878	0.03321470005903393
1	16.87716899998486	stim	202		2	ambiguous	ambiguous	preferred	600.0	30.0		21.56475889997091	0.03347349993418902
1	16.91064249991905	stim	203		2	ambiguous	ambiguous	preferred	600.0	30.0		21.5982323999051	0.03320130007341504
1	16.943843799992464	stim	204		2	ambiguous	ambiguous	preferred	600.0	30.0		21.631433699978516	0.03368390002287924
1	16.977527700015344	stim	205		2	ambiguous	ambiguous	preferred	600.0	30.0		21.665117600001395	0.03352149995043874
1	17.011049199965782	stim	206		2	ambiguous	ambiguous	preferred	600.0	30.0		21.698639099951833	0.03355950000695884
1	17.04460869997274	stim	207		2	ambiguous	ambiguous	preferred	600.0	30.0		21.732198599958792	0.03335639997385442
1	17.077965099946596	stim	208		2	ambiguous	ambiguous	preferred	600.0	30.0		21.765554999932647	0.03332529996987432
1	17.11129039991647	stim	209		2	ambiguous	ambiguous	preferred	600.0	30.0		21.79888029990252	0.033368200063705444
1	17.144658599980175	stim	210		2	ambiguous	ambiguous	preferred	600.0	30.0		21.832248499966227	0.03334219998214394
1	17.17800079996232	stim	211		2	ambiguous	ambiguous	preferred	600.0	30.0		21.86559069994837	0.03359600005205721
1	17.211596800014377	stim	212		2	ambiguous	ambiguous	preferred	600.0	30.0		21.899186700000428	0.03338059992529452
1	17.24497739993967	stim	213		2	ambiguous	ambiguous	preferred	600.0	30.0		21.932567299925722	0.033428800059482455
1	17.278406199999154	stim	214		2	ambiguous	ambiguous	preferred	600.0	30.0		21.965996099985205	0.0329981999238953
1	17.31140439992305	stim	215		2	ambiguous	ambiguous	preferred	600.0	30.0		21.9989942999091	0.03335710009559989
1	17.34476150001865	stim	216		2	ambiguous	ambiguous	preferred	600.0	30.0		22.0323514000047	0.03331389999948442
1	17.378075400018133	stim	217		2	ambiguous	ambiguous	preferred	600.0	30.0		22.065665300004184	0.033283299999311566
1	17.411358700017445	stim	218		2	ambiguous	ambiguous	preferred	600.0	30.0		22.098948600003496	0.03359080001246184
1	17.444949500029907	stim	219		2	ambiguous	ambiguous	preferred	600.0	30.0		22.132539400015958	0.033154499949887395
1	17.478103999979794	stim	220		2	ambiguous	ambiguous	preferred	600.0	30.0		22.165693899965845	0.03334810002706945
1	17.511452100006863	stim	221		2	ambiguous	ambiguous	preferred	600.0	30.0		22.199041999992914	0.03367029991932213
1	17.545122399926186	stim	222		2	ambiguous	ambiguous	preferred	600.0	30.0		22.232712299912237	0.03390949999447912
1	17.579031899920665	stim	223		2	ambiguous	ambiguous	preferred	600.0	30.0		22.266621799906716	0.03353470005095005
1	17.612566599971615	stim	224		2	ambiguous	ambiguous	preferred	600.0	30.0		22.300156499957666	0.033416599966585636
1	17.6459831999382	stim	225		2	ambiguous	ambiguous	preferred	600.0	30.0		22.33357309992425	0.03333370003383607
1	17.679316899972036	stim	226		2	ambiguous	ambiguous	preferred	600.0	30.0		22.366906799958088	0.033327799988910556
1	17.712644699960947	stim	227		2	ambiguous	ambiguous	preferred	600.0	30.0		22.400234599946998	0.033669000025838614
1	17.746313699986786	stim	228		2	ambiguous	ambiguous	preferred	600.0	30.0		22.433903599972837	0.03334940003696829
1	17.779663100023754	stim	229		2	ambiguous	ambiguous	preferred	600.0	30.0		22.467253000009805	0.033887799945659935
1	17.813550899969414	stim	230		2	ambiguous	ambiguous	preferred	600.0	30.0		22.501140799955465	0.03372289997059852
1	17.847273799940012	stim	231		2	ambiguous	ambiguous	preferred	600.0	30.0		22.534863699926063	0.03294110007118434
1	17.880214900011197	stim	232		2	ambiguous	ambiguous	preferred	600.0	30.0		22.567804799997248	0.03335179993882775
1	17.913566699950024	stim	233		2	ambiguous	ambiguous	preferred	600.0	30.0		22.601156599936076	0.033548900042660534
1	17.947115599992685	stim	234		2	ambiguous	ambiguous	preferred	600.0	30.0		22.634705499978736	0.03400129999499768
1	17.981116899987683	stim	235		2	ambiguous	ambiguous	preferred	600.0	30.0		22.668706799973734	0.03311980003491044
1	18.014236700022593	stim	236		2	ambiguous	ambiguous	preferred	600.0	30.0		22.701826600008644	0.03348379989620298
1	18.047720499918796	stim	237		2	ambiguous	ambiguous	preferred	600.0	30.0		22.735310399904847	0.033208100008778274
1	18.080928599927574	stim	238		2	ambiguous	ambiguous	preferred	600.0	30.0		22.768518499913625	0.033467000001110137
1	18.114395599928685	stim	239		2	ambiguous	ambiguous	preferred	600.0	30.0		22.801985499914736	0.03328380000311881
1	18.147679399931803	stim	240		2	ambiguous	ambiguous	preferred	600.0	30.0		22.835269299917854	0.03329470008611679
1	18.18097410001792	stim	241		2	ambiguous	ambiguous	preferred	600.0	30.0		22.86856400000397	0.03330279991496354
1	18.214276899932884	stim	242		2	ambiguous	ambiguous	preferred	600.0	30.0		22.901866799918935	0.033342599985189736
1	18.247619499918073	stim	243		2	ambiguous	ambiguous	preferred	600.0	30.0		22.935209399904124	0.03345910005737096
1	18.281078599975444	stim	244		2	ambiguous	ambiguous	preferred	600.0	30.0		22.968668499961495	0.03346840001177043
1	18.314546999987215	stim	245		2	ambiguous	ambiguous	preferred	600.0	30.0		23.002136899973266	0.033105699927546084
1	18.34765269991476	stim	246		2	ambiguous	ambiguous	preferred	600.0	30.0		23.035242599900812	0.0332935000769794
1	18.38094619999174	stim	247		2	ambiguous	ambiguous	preferred	600.0	30.0		23.06853609997779	0.03336749994195998
1	18.4143136999337	stim	248		2	ambiguous	ambiguous	preferred	600.0	30.0		23.10190359991975	0.03360040008556098
1	18.44791410001926	stim	249		2	ambiguous	ambiguous	preferred	600.0	30.0		23.135504000005312	0.0338112999452278
1	18.48172539996449	stim	250		2	ambiguous	ambiguous	preferred	600.0	30.0		23.16931529995054	0.03338619996793568
1	18.515111599932425	stim	251		2	ambiguous	ambiguous	preferred	600.0	30.0		23.202701499918476	0.03329500008840114
1	18.548406600020826	stim	252		2	ambiguous	ambiguous	preferred	600.0	30.0		23.235996500006877	0.033398999948985875
1	18.58180559996981	stim	253		2	ambiguous	ambiguous	preferred	600.0	30.0		23.269395499955863	0.0332971999887377
1	18.61510279995855	stim	254		2	ambiguous	ambiguous	preferred	600.0	30.0		23.3026926999446	0.033436199999414384
1	18.648538999957964	stim	255		2	ambiguous	ambiguous	preferred	600.0	30.0		23.336128899944015	0.033285100013017654
1	18.68182409997098	stim	256		2	ambiguous	ambiguous	preferred	600.0	30.0		23.369413999957033	0.03393959999084473
1	18.715763699961826	stim	257		2	ambiguous	ambiguous	preferred	600.0	30.0		23.403353599947877	0.04987129999790341
1	18.76563499995973	stim	258		2	ambiguous	ambiguous	preferred	600.0	30.0		23.45322489994578	0.033415199955925345
1	18.799050199915655	stim	259		2	ambiguous	ambiguous	preferred	600.0	30.0		23.486640099901706	0.0333744001109153
1	18.83242460002657	stim	260		2	ambiguous	ambiguous	preferred	600.0	30.0		23.52001450001262	0.03325589990708977
1	18.86568049993366	stim	261		2	ambiguous	ambiguous	preferred	600.0	30.0		23.55327039991971	0.03356310003437102
1	18.89924359996803	stim	262		2	ambiguous	ambiguous	preferred	600.0	30.0		23.586833499954082	0.03320599999278784
1	18.93244959996082	stim	263		2	ambiguous	ambiguous	preferred	600.0	30.0		23.62003949994687	0.03333810006733984
1	18.96578770002816	stim	264		2	ambiguous	ambiguous	preferred	600.0	30.0		23.65337760001421	0.03363439999520779
1	18.999422100023367	stim	265		2	ambiguous	ambiguous	preferred	600.0	30.0		23.687012000009418	0.03334490000270307
1	19.03276700002607	stim	266		2	ambiguous	ambiguous	preferred	600.0	30.0		23.72035690001212	0.033352999947965145
1	19.066119999974035	stim	267		2	ambiguous	ambiguous	preferred	600.0	30.0		23.753709899960086	0.03340900002513081
1	19.099528999999166	stim	268		2	ambiguous	ambiguous	preferred	600.0	30.0		23.787118899985217	0.033302700030617416
1	19.132831700029783	stim	269		2	ambiguous	ambiguous	preferred	600.0	30.0		23.820421600015834	0.03339809994213283
1	19.166229799971916	stim	270		2	ambiguous	ambiguous	preferred	600.0	30.0		23.853819699957967	0.03331580001395196
1	19.199545599985868	stim	271		2	ambiguous	ambiguous	preferred	600.0	30.0		23.88713549997192	0.03344439994543791
1	19.232989999931306	stim	272		2	ambiguous	ambiguous	preferred	600.0	30.0		23.920579899917357	0.033385800081305206
1	19.26637580001261	stim	273		2	ambiguous	ambiguous	preferred	600.0	30.0		23.953965699998662	0.033530499902553856
1	19.299906299915165	stim	274		2	ambiguous	ambiguous	preferred	600.0	30.0		23.987496199901216	0.03386460000183433
1	19.333770899917	stim	275		2	ambiguous	ambiguous	preferred	600.0	30.0		24.02136079990305	0.03274540009442717
1	19.366516300011426	stim	276		2	ambiguous	ambiguous	preferred	600.0	30.0		24.054106199997477	0.03526019991841167
1	19.401776499929838	stim	277		2	ambiguous	ambiguous	preferred	600.0	30.0		24.08936639991589	0.03173160005826503
1	19.433508099988103	stim	278		2	ambiguous	ambiguous	preferred	600.0	30.0		24.121097999974154	0.03496610000729561
1	19.4684741999954	stim	279		2	ambiguous	ambiguous	preferred	600.0	30.0		24.15606409998145	0.033668800024315715
1	19.502143000019714	stim	280		2	ambiguous	ambiguous	preferred	600.0	30.0		24.189732900005765	0.033199099940247834
1	19.535342099959962	stim	281		2	ambiguous	ambiguous	preferred	600.0	30.0		24.222931999946013	0.03336330002639443
1	19.568705399986356	stim	282		2	ambiguous	ambiguous	preferred	600.0	30.0		24.256295299972408	0.033123399945907295
1	19.601828799932264	stim	283		2	ambiguous	ambiguous	preferred	600.0	30.0		24.289418699918315	0.03334620001260191
1	19.635174999944866	stim	284		2	ambiguous	ambiguous	preferred	600.0	30.0		24.322764899930917	0.03342370002064854
1	19.668598699965514	stim	285		2	ambiguous	ambiguous	preferred	600.0	30.0		24.356188599951565	0.03347779996693134
1	19.702076499932446	stim	286		2	ambiguous	ambiguous	preferred	600.0	30.0		24.389666399918497	0.03307360003236681
1	19.735150099964812	stim	287		2	ambiguous	ambiguous	preferred	600.0	30.0		24.422739999950863	0.03367839998099953
1	19.768828499945812	stim	288		2	ambiguous	ambiguous	preferred	600.0	30.0		24.456418399931863	0.032966500031761825
1	19.801794999977574	stim	289		2	ambiguous	ambiguous	preferred	600.0	30.0		24.489384899963625	0.03346619999501854
1	19.835261199972592	stim	290		2	ambiguous	ambiguous	preferred	600.0	30.0		24.522851099958643	0.03340890002436936
1	19.86867009999696	stim	291		2	ambiguous	ambiguous	preferred	600.0	30.0		24.556259999983013	0.03315199993085116
1	19.901822099927813	stim	292		2	ambiguous	ambiguous	preferred	600.0	30.0		24.589411999913864	0.03381719999015331
1	19.935639299917966	stim	293		2	ambiguous	ambiguous	preferred	600.0	30.0		24.623229199904017	0.032992100110277534
1	19.968631400028244	stim	294		2	ambiguous	ambiguous	preferred	600.0	30.0		24.656221300014295	0.033214999944902956
1	20.001846399973147	stim	295		2	ambiguous	ambiguous	preferred	600.0	30.0		24.689436299959198	0.03336160001344979
1	20.035207999986596	stim	296		2	ambiguous	ambiguous	preferred	600.0	30.0		24.722797899972647	0.03329870000015944
1	20.068506699986756	stim	297		2	ambiguous	ambiguous	preferred	600.0	30.0		24.756096599972807	0.03340539999771863
1	20.101912099984474	stim	298		2	ambiguous	ambiguous	preferred	600.0	30.0		24.789501999970526	0.03391140000894666
1	20.13582349999342	stim	299		2	ambiguous	ambiguous	preferred	600.0	30.0		24.823413399979472	0.033050899975933135
1	20.168874399969354	stim	300		2	ambiguous	ambiguous	preferred	600.0	30.0		24.856464299955405	0.033833299996331334
1	20.202707699965686	stim	301		2	ambiguous	ambiguous	preferred	600.0	30.0		24.890297599951737	0.033151900046505034
1	20.23585960001219	stim	302		2	ambiguous	ambiguous	preferred	600.0	30.0		24.92344949999824	0.03356989996973425
1	20.269429499981925	stim	303		2	ambiguous	ambiguous	preferred	600.0	30.0		24.957019399967976	0.033350500045344234
1	20.30278000002727	stim	304		2	ambiguous	ambiguous	preferred	600.0	30.0		24.99036990001332	0.03348359989468008
1	20.33626359992195	stim	305		2	ambiguous	ambiguous	preferred	600.0	30.0		25.023853499908	0.03325770003721118
1	20.36952129995916	stim	306		2	ambiguous	ambiguous	preferred	600.0	30.0		25.05711119994521	0.033431599964387715
1	20.402952899923548	stim	307		2	ambiguous	ambiguous	preferred	600.0	30.0		25.0905427999096	0.033670100034214556
1	20.436622999957763	stim	308		2	ambiguous	ambiguous	preferred	600.0	30.0		25.124212899943814	0.0333602000027895
1	20.469983199960552	stim	309		2	ambiguous	ambiguous	preferred	600.0	30.0		25.157573099946603	0.033314400003291667
1	20.503297599963844	stim	310		2	ambiguous	ambiguous	preferred	600.0	30.0		25.190887499949895	0.03338889998849481
1	20.53668649995234	stim	311		2	ambiguous	ambiguous	preferred	600.0	30.0		25.22427639993839	0.033683400019071996
1	20.57036989997141	stim	312		2	ambiguous	ambiguous	preferred	600.0	30.0		25.25795979995746	0.03342340001836419
1	20.603793299989775	stim	313		2	ambiguous	ambiguous	preferred	600.0	30.0		25.291383199975826	0.03336599993053824
1	20.637159299920313	stim	314		2	ambiguous	ambiguous	preferred	600.0	30.0		25.324749199906364	0.03331510000862181
1	20.670474399928935	stim	315		2	ambiguous	ambiguous	preferred	600.0	30.0		25.358064299914986	0.033325300086289644
1	20.703799700015225	stim	316		2	ambiguous	ambiguous	preferred	600.0	30.0		25.391389600001276	0.03335799998603761
1	20.737157700001262	stim	317		2	ambiguous	ambiguous	preferred	600.0	30.0		25.424747599987313	0.033634499995969236
1	20.77079219999723	stim	318		2	ambiguous	ambiguous	preferred	600.0	30.0		25.458382099983282	0.03366650000680238
1	20.804458700004034	stim	319		2	ambiguous	ambiguous	preferred	600.0	30.0		25.492048599990085	0.03336130001116544
1	20.8378200000152	stim	320		2	ambiguous	ambiguous	preferred	600.0	30.0		25.52540990000125	0.033323499956168234
1	20.871143499971367	stim	321		2	ambiguous	ambiguous	preferred	600.0	30.0		25.55873339995742	0.03378920000977814
1	20.904932699981146	stim	322		2	ambiguous	ambiguous	preferred	600.0	30.0		25.592522599967197	0.0332118000369519
1	20.938144500018097	stim	323		2	ambiguous	ambiguous	preferred	600.0	30.0		25.62573440000415	0.03332919999957085
1	20.97147370001767	stim	324		2	ambiguous	ambiguous	preferred	600.0	30.0		25.65906360000372	0.03342230000998825
1	21.004896000027657	stim	325		2	ambiguous	ambiguous	preferred	600.0	30.0		25.692485900013708	0.03329789999406785
1	21.038193900021724	stim	326		2	ambiguous	ambiguous	preferred	600.0	30.0		25.725783800007775	0.033474599942564964
1	21.07166849996429	stim	327		2	ambiguous	ambiguous	preferred	600.0	30.0		25.75925839995034	0.03338240005541593
1	21.105050900019705	stim	328		2	ambiguous	ambiguous	preferred	600.0	30.0		25.792640800005756	0.03375939989928156
1	21.138810299918987	stim	329		2	ambiguous	ambiguous	preferred	600.0	30.0		25.826400199905038	0.03369440010283142
1	21.17250470002182	stim	330		2	ambiguous	ambiguous	preferred	600.0	30.0		25.86009460000787	0.03325429989490658
1	21.205758999916725	stim	331		2	ambiguous	ambiguous	preferred	600.0	30.0		25.893348899902776	0.033359400113113225
1	21.239118400029838	stim	332		2	ambiguous	ambiguous	preferred	600.0	30.0		25.92670830001589	0.03343959990888834
1	21.272557999938726	stim	333		2	ambiguous	ambiguous	preferred	600.0	30.0		25.960147899924777	0.03319800004828721
1	21.305755999987014	stim	334		2	ambiguous	ambiguous	preferred	600.0	30.0		25.993345899973065	0.03373319993261248
1	21.339489199919626	stim	335		2	ambiguous	ambiguous	preferred	600.0	30.0		26.027079099905677	0.03346760000567883
1	21.372956799925305	stim	336		2	ambiguous	ambiguous	preferred	600.0	30.0		26.060546699911356	0.033117800019681454
1	21.406074599944986	stim	337		2	ambiguous	ambiguous	preferred	600.0	30.0		26.093664499931037	0.033704400062561035
1	21.439779000007547	stim	338		2	ambiguous	ambiguous	preferred	600.0	30.0		26.1273688999936	0.03300249995663762
1	21.472781499964185	stim	339		2	ambiguous	ambiguous	preferred	600.0	30.0		26.160371399950236	0.03383380000013858
1	21.506615299964324	stim	340		2	ambiguous	ambiguous	preferred	600.0	30.0		26.194205199950375	0.03336330002639443
1	21.539978599990718	stim	341		2	ambiguous	ambiguous	preferred	600.0	30.0		26.22756849997677	0.03336430003400892
1	21.573342900024727	stim	342		2	ambiguous	ambiguous	preferred	600.0	30.0		26.260932800010778	0.03368559991940856
1	21.607028499944136	stim	343		2	ambiguous	ambiguous	preferred	600.0	30.0		26.294618399930187	0.03329020005185157
1	21.640318699995987	stim	344		2	ambiguous	ambiguous	preferred	600.0	30.0		26.327908599982038	0.03337309998460114
1	21.67369179998059	stim	345		2	ambiguous	ambiguous	preferred	600.0	30.0		26.36128169996664	0.033382499939762056
1	21.70707429992035	stim	346		2	ambiguous	ambiguous	preferred	600.0	30.0		26.3946641999064	0.03349620010703802
1	21.74057050002739	stim	347		2	ambiguous	ambiguous	preferred	600.0	30.0		26.42816040001344	0.033222600002773106
1	21.77379310003016	stim	348		2	ambiguous	ambiguous	preferred	600.0	30.0		26.461383000016212	0.03351379989180714
1	21.80730689992197	stim	349		2	ambiguous	ambiguous	preferred	600.0	30.0		26.49489679990802	0.03339430002961308
1	21.84070119995158	stim	350		2	ambiguous	ambiguous	preferred	600.0	30.0		26.528291099937633	0.03370570007245988
1	21.87440690002404	stim	351		2	ambiguous	ambiguous	preferred	600.0	30.0		26.561996800010093	0.03334249998442829
1	21.90774940000847	stim	352		2	ambiguous	ambiguous	preferred	600.0	30.0		26.59533929999452	0.033782499958761036
1	21.94153189996723	stim	353		2	ambiguous	ambiguous	preferred	600.0	30.0		26.629121799953282	0.03350250003859401
1	21.975034400005825	stim	354		2	ambiguous	ambiguous	preferred	600.0	30.0		26.662624299991876	0.03357999993022531
1	22.00861439993605	stim	355		2	ambiguous	ambiguous	preferred	600.0	30.0		26.6962042999221	0.03350850008428097
1	22.04212290002033	stim	356		2	ambiguous	ambiguous	preferred	600.0	30.0		26.729712800006382	0.0332668999908492
1	22.07538980001118	stim	357		2	ambiguous	ambiguous	preferred	600.0	30.0		26.76297969999723	0.03332399995997548
1	22.108713799971156	stim	358		2	ambiguous	ambiguous	preferred	600.0	30.0		26.796303699957207	0.033350300043821335
1	22.142064100014977	stim	359		2	ambiguous	ambiguous	preferred	600.0	30.0		26.829654000001028	0.03343710000626743
1	22.175501200021245	stim	360		2	ambiguous	ambiguous	preferred	600.0	30.0		26.863091100007296	0.033941500005312264
1	22.209442700026557	stim	361		2	ambiguous	ambiguous	preferred	600.0	30.0		26.897032600012608	0.033137999940663576
1	22.24258069996722	stim	362		2	ambiguous	ambiguous	preferred	600.0	30.0		26.93017059995327	0.033360700006596744
1	22.275941399973817	stim	363		2	ambiguous	ambiguous	preferred	600.0	30.0		26.963531299959868	0.03384899999946356
1	22.30979039997328	stim	364		2	ambiguous	ambiguous	preferred	600.0	30.0		26.99738029995933	0.033344299998134375
1	22.343134699971415	stim	365		2	ambiguous	ambiguous	preferred	600.0	30.0		27.030724599957466	0.03312140004709363
1	22.37625610001851	stim	366		2	ambiguous	ambiguous	preferred	600.0	30.0		27.06384600000456	0.03391269990243018
1	22.41016879992094	stim	367		2	ambiguous	ambiguous	preferred	600.0	30.0		27.09775869990699	0.0332935000769794
1	22.44346229999792	stim	368		2	ambiguous	ambiguous	preferred	600.0	30.0		27.13105219998397	0.03316559991799295
1	22.47662789991591	stim	369		2	ambiguous	ambiguous	preferred	600.0	30.0		27.164217799901962	0.033259700052440166
1	22.50988759996835	stim	370		2	ambiguous	ambiguous	preferred	600.0	30.0		27.197477499954402	0.033797499956563115
1	22.543685099924915	stim	371		2	ambiguous	ambiguous	preferred	600.0	30.0		27.231274999910966	0.03334190009627491
1	22.57702700002119	stim	372		2	ambiguous	ambiguous	preferred	600.0	30.0		27.26461690000724	0.03340979991480708
1	22.610436799935997	stim	373		2	ambiguous	ambiguous	preferred	600.0	30.0		27.298026699922048	0.03345460002310574
1	22.643891399959102	stim	374		2	ambiguous	ambiguous	preferred	600.0	30.0		27.331481299945153	0.03361779998522252
1	22.677509199944325	stim	375		2	ambiguous	ambiguous	preferred	600.0	30.0		27.365099099930376	0.03330390003975481
1	22.71081309998408	stim	376		2	ambiguous	ambiguous	preferred	600.0	30.0		27.39840299997013	0.03326809999998659
1	22.744081199984066	stim	377		2	ambiguous	ambiguous	preferred	600.0	30.0		27.431671099970117	0.0333408999722451
1	22.77742209995631	stim	378		2	ambiguous	ambiguous	preferred	600.0	30.0		27.465011999942362	0.03385999996680766
1	22.81128209992312	stim	379		2	ambiguous	ambiguous	preferred	600.0	30.0		27.49887199990917	0.03350860008504242
1	22.84479070000816	stim	380		2	ambiguous	ambiguous	preferred	600.0	30.0		27.532380599994212	0.033194500021636486
1	22.877985200029798	stim	381		2	ambiguous	ambiguous	preferred	600.0	30.0		27.56557510001585	0.03375399997457862
1	22.911739200004376	stim	382		2	ambiguous	ambiguous	preferred	600.0	30.0		27.599329099990427	0.033311499981209636
1	22.945050699985586	stim	383		2	ambiguous	ambiguous	preferred	600.0	30.0		27.632640599971637	0.03348250000271946
1	22.978533199988306	stim	384		2	ambiguous	ambiguous	preferred	600.0	30.0		27.666123099974357	0.03357880003750324
1	23.01211200002581	stim	385		2	ambiguous	ambiguous	preferred	600.0	30.0		27.69970190001186	0.03353609994519502
1	23.045648099971004	stim	386		2	ambiguous	ambiguous	preferred	600.0	30.0		27.733237999957055	0.03303050005342811
1	23.078678600024432	stim	387		2	ambiguous	ambiguous	preferred	600.0	30.0		27.766268500010483	0.0334337999811396
1	23.11211240000557	stim	388		2	ambiguous	ambiguous	preferred	600.0	30.0		27.799702299991623	0.03319240000564605
1	23.145304800011218	stim	389		2	ambiguous	ambiguous	preferred	600.0	30.0		27.83289469999727	0.03337630000896752
1	23.178681100020185	stim	390		2	ambiguous	ambiguous	preferred	600.0	30.0		27.866271000006236	0.03374759992584586
1	23.21242869994603	stim	391		2	ambiguous	ambiguous	preferred	600.0	30.0		27.900018599932082	0.03365050000138581
1	23.246079199947417	stim	392		2	ambiguous	ambiguous	preferred	600.0	30.0		27.933669099933468	0.032938600052148104
1	23.279017799999565	stim	393		2	ambiguous	ambiguous	preferred	600.0	30.0		27.966607699985616	0.033333499915897846
1	23.312351299915463	stim	394		2	ambiguous	ambiguous	preferred	600.0	30.0		27.999941199901514	0.03343260008841753
1	23.34578390000388	stim	395		2	ambiguous	ambiguous	preferred	600.0	30.0		28.03337379998993	0.033243299927562475
1	23.379027199931443	stim	396		2	ambiguous	ambiguous	preferred	600.0	30.0		28.066617099917494	0.03332630009390414
1	23.412353500025347	stim	397		2	ambiguous	ambiguous	preferred	600.0	30.0		28.099943400011398	0.03363129997160286
1	23.44598479999695	stim	398		2	ambiguous	ambiguous	preferred	600.0	30.0		28.133574699983	0.03300239995587617
1	23.478987199952826	stim	399		2	ambiguous	ambiguous	preferred	600.0	30.0		28.166577099938877	0.03334490000270307
1	23.51233209995553	stim	400		2	ambiguous	ambiguous	preferred	600.0	30.0		28.19992199994158	0.033351600053720176
1	23.54568370000925	stim	401		2	ambiguous	ambiguous	preferred	600.0	30.0		28.2332735999953	0.03349609998986125
1	23.57917979999911	stim	402		2	ambiguous	ambiguous	preferred	600.0	30.0		28.26676969998516	0.033317600027658045
1	23.61249740002677	stim	403		2	ambiguous	ambiguous	preferred	600.0	30.0		28.30008730001282	0.0333719999762252
1	23.645869400002994	stim	404		2	ambiguous	ambiguous	preferred	600.0	30.0		28.333459299989045	0.03375419997610152
1	23.679623599979095	stim	405		2	ambiguous	ambiguous	preferred	600.0	30.0		28.367213499965146	0.03355269995518029
1	23.713176299934275	stim	406		2	ambiguous	ambiguous	preferred	600.0	30.0		28.400766199920326	0.03288700000848621
1	23.74606329994276	stim	407		2	ambiguous	ambiguous	preferred	600.0	30.0		28.433653199928813	0.033422700013034046
1	23.779485999955796	stim	408		2	ambiguous	ambiguous	preferred	600.0	30.0		28.467075899941847	0.03335719997994602
1	23.81284319993574	stim	409		2	ambiguous	ambiguous	preferred	600.0	30.0		28.500433099921793	0.03345029999036342
1	23.846293499926105	stim	410		2	ambiguous	ambiguous	preferred	600.0	30.0		28.533883399912156	0.033759000012651086
1	23.880052499938756	stim	411		2	ambiguous	ambiguous	preferred	600.0	30.0		28.567642399924807	0.03311960003338754
1	23.913172099972144	stim	412		2	ambiguous	ambiguous	preferred	600.0	30.0		28.600761999958195	0.033384299953468144
1	23.946556399925612	stim	413		2	ambiguous	ambiguous	preferred	600.0	30.0		28.634146299911663	0.03327750007156283
1	23.979833899997175	stim	414		2	ambiguous	ambiguous	preferred	600.0	30.0		28.667423799983226	0.03335419995710254
1	24.013188099954277	stim	415		2	ambiguous	ambiguous	preferred	600.0	30.0		28.70077799994033	0.03358190006110817
1	24.046770000015385	stim	416		2	ambiguous	ambiguous	preferred	600.0	30.0		28.734359900001436	0.03326349996495992
1	24.080033499980345	stim	417		2	ambiguous	ambiguous	preferred	600.0	30.0		28.767623399966396	0.033480499987490475
1	24.113513999967836	stim	418		2	ambiguous	ambiguous	preferred	600.0	30.0		28.801103899953887	0.04980449995491654
1	24.163318499922752	stim	419		2	ambiguous	ambiguous	preferred	600.0	30.0		28.850908399908803	0.03363850002642721
1	24.19695699994918	stim	420		2	ambiguous	ambiguous	preferred	600.0	30.0		28.88454689993523	0.03342940006405115
1	24.23038640001323	stim	421		2	ambiguous	ambiguous	preferred	600.0	30.0		28.91797629999928	0.03319129999727011
1	24.2635777000105	stim	422		2	ambiguous	ambiguous	preferred	600.0	30.0		28.951167599996552	0.03345489990897477
1	24.297032599919476	stim	423		2	ambiguous	ambiguous	preferred	600.0	30.0		28.984622499905527	0.03326370008289814
1	24.330296300002374	stim	424		2	ambiguous	ambiguous	preferred	600.0	30.0		29.017886199988425	0.033301400020718575
1	24.363597700023092	stim	425		2	ambiguous	ambiguous	preferred	600.0	30.0		29.051187600009143	0.033353199949488044
1	24.39695089997258	stim	426		2	ambiguous	ambiguous	preferred	600.0	30.0		29.08454079995863	0.03362809994723648
1	24.430578999919817	stim	427		2	ambiguous	ambiguous	preferred	600.0	30.0		29.118168899905868	0.03360389999579638
1	24.464182899915613	stim	428		2	ambiguous	ambiguous	preferred	600.0	30.0		29.151772799901664	0.033604800002649426
1	24.497787699918263	stim	429		2	ambiguous	ambiguous	preferred	600.0	30.0		29.185377599904314	0.033517500036396086
1	24.53130519995466	stim	430		2	ambiguous	ambiguous	preferred	600.0	30.0		29.21889509994071	0.03349339996930212
1	24.56479859992396	stim	431		2	ambiguous	ambiguous	preferred	600.0	30.0		29.252388499910012	0.03365050000138581
1	24.598449099925347	stim	432		2	ambiguous	ambiguous	preferred	600.0	30.0		29.286038999911398	0.033169600064866245
1	24.631618699990213	stim	433		2	ambiguous	ambiguous	preferred	600.0	30.0		29.319208599976264	0.03336320002563298
1	24.664981900015846	stim	434		2	ambiguous	ambiguous	preferred	600.0	30.0		29.352571800001897	0.03357719990890473
1	24.69855909992475	stim	435		2	ambiguous	ambiguous	preferred	600.0	30.0		29.3861489999108	0.03329160006251186
1	24.731850699987262	stim	436		2	ambiguous	ambiguous	preferred	600.0	30.0		29.419440599973314	0.03350649995263666
1	24.7653571999399	stim	437		2	ambiguous	ambiguous	preferred	600.0	30.0		29.45294709992595	0.033167900051921606
1	24.79852509999182	stim	438		2	ambiguous	ambiguous	preferred	600.0	30.0		29.48611499997787	0.03325009997934103
1	24.831775199971162	stim	439		2	ambiguous	ambiguous	preferred	600.0	30.0		29.519365099957213	0.03339240001514554
1	24.865167599986307	stim	440		2	ambiguous	ambiguous	preferred	600.0	30.0		29.55275749997236	0.03385879995767027
1	24.899026399943978	stim	441		2	ambiguous	ambiguous	preferred	600.0	30.0		29.58661629993003	0.0333173000253737
1	24.93234369996935	stim	442		2	ambiguous	ambiguous	preferred	600.0	30.0		29.619933599955402	0.033132600015960634
1	24.965476299985312	stim	443		2	ambiguous	ambiguous	preferred	600.0	30.0		29.653066199971363	0.03332439996302128
1	24.998800699948333	stim	444		2	ambiguous	ambiguous	preferred	600.0	30.0		29.686390599934384	0.034018600010313094
1	25.032819299958646	stim	445		2	ambiguous	ambiguous	preferred	600.0	30.0		29.720409199944697	0.0504798999754712
1	25.083299199934117	stim	446		2	ambiguous	ambiguous	preferred	600.0	30.0		29.77088909992017	0.03312420006841421
1	25.11642340000253	stim	447		2	ambiguous	ambiguous	preferred	600.0	30.0		29.804013299988583	0.03326159995049238
1	25.149684999953024	stim	448		2	ambiguous	ambiguous	preferred	600.0	30.0		29.837274899939075	0.03336600004695356
1	25.183050999999978	stim	449		2	ambiguous	ambiguous	preferred	600.0	30.0		29.87064089998603	0.033280599978752434
1	25.21633159997873	stim	450		2	ambiguous	ambiguous	preferred	600.0	30.0		29.90392149996478	0.033320500049740076
1	25.24965210002847	stim	451		2	ambiguous	ambiguous	preferred	600.0	30.0		29.93724200001452	0.03349499998148531
1	25.283147100009955	stim	452		2	ambiguous	ambiguous	preferred	600.0	30.0		29.970736999996006	0.035187099943868816
1	25.318334199953824	stim	453		2	ambiguous	ambiguous	preferred	600.0	30.0		30.005924099939875	0.03335210005752742
1	25.35168630001135	stim	454		2	ambiguous	ambiguous	preferred	600.0	30.0		30.039276199997403	0.03347019990906119
1	25.385156499920413	stim	455		2	ambiguous	ambiguous	preferred	600.0	30.0		30.072746399906464	0.03331560001242906
1	25.418472099932842	stim	456		2	ambiguous	ambiguous	preferred	600.0	30.0		30.106061999918893	0.03338260005693883
1	25.45185469998978	stim	457		2	ambiguous	ambiguous	preferred	600.0	30.0		30.139444599975832	0.03321879997383803
1	25.48507349996362	stim	458		2	ambiguous	ambiguous	preferred	600.0	30.0		30.17266339994967	0.03351259999908507
1	25.518586099962704	stim	459		2	ambiguous	ambiguous	preferred	600.0	30.0		30.206175999948755	0.03309419995639473
1	25.5516802999191	stim	460		2	ambiguous	ambiguous	preferred	600.0	30.0		30.23927019990515	0.03337390010710806
1	25.585054200026207	stim	461		2	ambiguous	ambiguous	preferred	600.0	30.0		30.272644100012258	0.033326399978250265
1	25.618380600004457	stim	462		2	ambiguous	ambiguous	preferred	600.0	30.0		30.305970499990508	0.03331799991428852
1	25.651698599918745	stim	463		2	ambiguous	ambiguous	preferred	600.0	30.0		30.339288499904796	0.03375860000960529
1	25.68545719992835	stim	464		2	ambiguous	ambiguous	preferred	600.0	30.0		30.3730470999144	0.03336290002334863
1	25.7188200999517	stim	465		2	ambiguous	ambiguous	preferred	600.0	30.0		30.40640999993775	0.03342310001607984
1	25.75224319996778	stim	466		2	ambiguous	ambiguous	preferred	600.0	30.0		30.43983309995383	0.033633299986831844
1	25.78587649995461	stim	467		2	ambiguous	ambiguous	preferred	600.0	30.0		30.473466399940662	0.03313470003195107
1	25.819011199986562	stim	468		2	ambiguous	ambiguous	preferred	600.0	30.0		30.506601099972613	0.03335579996928573
1	25.852366999955848	stim	469		2	ambiguous	ambiguous	preferred	600.0	30.0		30.5399568999419	0.03363730001728982
1	25.886004299973138	stim	470		2	ambiguous	ambiguous	preferred	600.0	30.0		30.57359419995919	0.03362739994190633
1	25.919631699915044	stim	471		2	ambiguous	ambiguous	preferred	600.0	30.0		30.607221599901095	0.0335893000010401
1	25.953220999916084	stim	472		2	ambiguous	ambiguous	preferred	600.0	30.0		30.640810899902135	0.03333730006124824
1	25.986558299977332	stim	473		2	ambiguous	ambiguous	preferred	600.0	30.0		30.674148199963383	0.03387699997983873
1	26.02043529995717	stim	474		2	ambiguous	ambiguous	preferred	600.0	30.0		30.708025199943222	0.03300369996577501
1	26.053438999922946	stim	475		2	ambiguous	ambiguous	preferred	600.0	30.0		30.741028899908997	0.03371970006264746
1	26.087158699985594	stim	476		2	ambiguous	ambiguous	preferred	600.0	30.0		30.774748599971645	0.03333579993341118
1	26.120494499919005	stim	477		2	ambiguous	ambiguous	preferred	600.0	30.0		30.808084399905056	0.033779800054617226
1	26.154274299973622	stim	478		2	ambiguous	ambiguous	preferred	600.0	30.0		30.841864199959673	0.03316859994083643
1	26.18744289991446	stim	479		2	ambiguous	ambiguous	preferred	600.0	30.0		30.87503279990051	0.0334100000327453
1	26.220852899947204	stim	480		2	ambiguous	ambiguous	preferred	600.0	30.0		30.908442799933255	0.03323990001808852
1	26.254092799965292	stim	481		2	ambiguous	ambiguous	preferred	600.0	30.0		30.941682699951343	0.03334690001793206
1	26.287439699983224	stim	482		2	ambiguous	ambiguous	preferred	600.0	30.0		30.975029599969275	0.033735099947080016
1	26.321174799930304	stim	483		2	ambiguous	ambiguous	preferred	600.0	30.0		31.008764699916355	0.033717500045895576
1	26.3548922999762	stim	484		2	ambiguous	ambiguous	preferred	600.0	30.0		31.04248219996225	0.03344749996904284
1	26.388339799945243	stim	485		2	ambiguous	ambiguous	preferred	600.0	30.0		31.075929699931294	0.03335150005295873
1	26.4216912999982	stim	486		2	ambiguous	ambiguous	preferred	600.0	30.0		31.109281199984252	0.03335239994339645
1	26.455043699941598	stim	487		2	ambiguous	ambiguous	preferred	600.0	30.0		31.14263359992765	0.03356010001152754
1	26.488603799953125	stim	488		2	ambiguous	ambiguous	preferred	600.0	30.0		31.176193699939176	0.03333160001784563
1	26.52193539997097	stim	489		2	ambiguous	ambiguous	preferred	600.0	30.0		31.209525299957022	0.033505799947306514
1	26.555441199918278	stim	490		2	ambiguous	ambiguous	preferred	600.0	30.0		31.24303109990433	0.033259700052440166
1	26.588700899970718	stim	491		2	ambiguous	ambiguous	preferred	600.0	30.0		31.27629079995677	0.03324430005159229
1	26.62194520002231	stim	492		2	ambiguous	ambiguous	preferred	600.0	30.0		31.30953510000836	0.03344819997437298
1	26.655393399996683	stim	493		2	ambiguous	ambiguous	preferred	600.0	30.0		31.342983299982734	0.03344859997741878
1	26.688841999974102	stim	494		2	ambiguous	ambiguous	preferred	600.0	30.0		31.376431899960153	0.03373439994174987
1	26.72257639991585	stim	495		2	ambiguous	ambiguous	preferred	600.0	30.0		31.410166299901903	0.03370790008921176
1	26.756284300005063	stim	496		2	ambiguous	ambiguous	preferred	600.0	30.0		31.443874199991114	0.03341049992013723
1	26.7896947999252	stim	497		2	ambiguous	ambiguous	preferred	600.0	30.0		31.47728469991125	0.03372290008701384
1	26.823417700012214	stim	498		2	ambiguous	ambiguous	preferred	600.0	30.0		31.511007599998266	0.033419899991713464
1	26.856837600003928	stim	499		2	ambiguous	ambiguous	preferred	600.0	30.0		31.54442749998998	0.03319979994557798
1	26.890037399949506	stim	500		2	ambiguous	ambiguous	preferred	600.0	30.0		31.577627299935557	0.03369630000088364
1	26.92373369995039	stim	501		2	ambiguous	ambiguous	preferred	600.0	30.0		31.61132359993644	0.03364340006373823
1	26.957377100014128	stim	502		2	ambiguous	ambiguous	preferred	600.0	30.0		31.64496700000018	0.033194199902936816
1	26.990571299917065	stim	503		2	ambiguous	ambiguous	preferred	600.0	30.0		31.678161199903116	0.033229000051505864
1	27.02380029996857	stim	504		2	ambiguous	ambiguous	preferred	600.0	30.0		31.71139019995462	0.03366760001517832
1	27.05746789998375	stim	505		0	ambiguous	ambiguous	preferred	600.0	30.0		31.7450577999698	-8.019228599965572
1	19.038239300018176	ambiguous	505	j	2	ambiguous	ambiguous	preferred	600.0	30.0	11.536916099954396	23.725829200004227	8.052846599952318
1	27.091085899970494	stim	506		2	ambiguous	ambiguous	preferred	600.0	30.0		31.778675799956545	0.033203299972228706
1	27.124289199942723	stim	507		2	ambiguous	ambiguous	preferred	600.0	30.0		31.811879099928774	0.03335230005905032
1	27.157641500001773	stim	508		2	ambiguous	ambiguous	preferred	600.0	30.0		31.845231399987824	0.03344249993097037
1	27.191083999932744	stim	509		2	ambiguous	ambiguous	preferred	600.0	30.0		31.878673899918795	0.033542799996212125
1	27.224626799928956	stim	510		2	ambiguous	ambiguous	preferred	600.0	30.0		31.912216699915007	0.033628900069743395
1	27.2582556999987	stim	511		2	ambiguous	ambiguous	preferred	600.0	30.0		31.94584559998475	0.0333476000232622
1	27.29160330002196	stim	512		2	ambiguous	ambiguous	preferred	600.0	30.0		31.979193200008012	0.03361589997075498
1	27.325219199992716	stim	513		2	ambiguous	ambiguous	preferred	600.0	30.0		32.01280909997877	0.033470400026999414
1	27.358689600019716	stim	514		2	ambiguous	ambiguous	preferred	600.0	30.0		32.04627950000577	0.033441999927163124
1	27.39213159994688	stim	515		2	ambiguous	ambiguous	preferred	600.0	30.0		32.07972149993293	0.03312140004709363
1	27.425252999993972	stim	516		2	ambiguous	ambiguous	preferred	600.0	30.0		32.11284289998002	0.03401469998061657
1	27.45926769997459	stim	517		2	ambiguous	ambiguous	preferred	600.0	30.0		32.14685759996064	0.03328249999321997
1	27.49255019996781	stim	518		2	ambiguous	ambiguous	preferred	600.0	30.0		32.18014009995386	0.033304200042039156
1	27.525854400009848	stim	519		2	ambiguous	ambiguous	preferred	600.0	30.0		32.2134442999959	0.03372459998354316
1	27.55957899999339	stim	520		2	ambiguous	ambiguous	preferred	600.0	30.0		32.24716889997944	0.033639000030234456
1	27.593218000023626	stim	521		2	ambiguous	ambiguous	preferred	600.0	30.0		32.28080790000968	0.033698899904266
1	27.626916899927892	stim	522		2	ambiguous	ambiguous	preferred	600.0	30.0		32.31450679991394	0.03339540003798902
1	27.66031229996588	stim	523		2	ambiguous	ambiguous	preferred	600.0	30.0		32.34790219995193	0.03330680006183684
1	27.693619100027718	stim	524		2	ambiguous	ambiguous	preferred	600.0	30.0		32.38120900001377	0.033640399924479425
1	27.727259499952197	stim	525		2	ambiguous	ambiguous	preferred	600.0	30.0		32.41484939993825	0.03345500002615154
1	27.76071449997835	stim	526		2	ambiguous	ambiguous	preferred	600.0	30.0		32.4483043999644	0.03355239995289594
1	27.794266899931245	stim	527		2	ambiguous	ambiguous	preferred	600.0	30.0		32.481856799917296	0.03320619999431074
1	27.827473099925555	stim	528		2	ambiguous	ambiguous	preferred	600.0	30.0		32.515062999911606	0.03357020008843392
1	27.86104330001399	stim	529		2	ambiguous	ambiguous	preferred	600.0	30.0		32.54863320000004	0.03332899999804795
1	27.894372300012037	stim	530		2	ambiguous	ambiguous	preferred	600.0	30.0		32.58196219999809	0.033246399951167405
1	27.927618699963205	stim	531		2	ambiguous	ambiguous	preferred	600.0	30.0		32.615208599949256	0.03365500003565103
1	27.961273699998856	stim	532		2	ambiguous	ambiguous	preferred	600.0	30.0		32.64886359998491	0.03363969991914928
1	27.994913399918005	stim	533		2	ambiguous	ambiguous	preferred	600.0	30.0		32.682503299904056	0.03370850009378046
1	28.028621900011785	stim	534		2	ambiguous	ambiguous	preferred	600.0	30.0		32.716211799997836	0.03332069993484765
1	28.061942599946633	stim	535		2	ambiguous	ambiguous	preferred	600.0	30.0		32.749532499932684	0.03338110004551709
1	28.09532369999215	stim	536		2	ambiguous	ambiguous	preferred	600.0	30.0		32.7829135999782	0.03330160002224147
1	28.12862530001439	stim	537		2	ambiguous	ambiguous	preferred	600.0	30.0		32.81621520000044	0.03392009995877743
1	28.16254539997317	stim	538		2	ambiguous	ambiguous	preferred	600.0	30.0		32.85013529995922	0.03320229996461421
1	28.195747699937783	stim	539		2	ambiguous	ambiguous	preferred	600.0	30.0		32.883337599923834	0.0332543000113219
1	28.229001999949105	stim	540		2	ambiguous	ambiguous	preferred	600.0	30.0		32.916591899935156	0.033713200013153255
1	28.26271519996226	stim	541		2	ambiguous	ambiguous	preferred	600.0	30.0		32.95030509994831	0.03335220005828887
1	28.296067400020547	stim	542		2	ambiguous	ambiguous	preferred	600.0	30.0		32.9836573000066	0.03340600000228733
1	28.329473400022835	stim	543		2	ambiguous	ambiguous	preferred	600.0	30.0		33.017063300008886	0.0334644999820739
1	28.36293790000491	stim	544		2	ambiguous	ambiguous	preferred	600.0	30.0		33.05052779999096	0.033622700022533536
1	28.396560600027442	stim	545		2	ambiguous	ambiguous	preferred	600.0	30.0		33.08415050001349	0.03345019998960197
1	28.430010800017044	stim	546		2	ambiguous	ambiguous	preferred	600.0	30.0		33.117600700003095	0.03313879994675517
1	28.4631495999638	stim	547		2	ambiguous	ambiguous	preferred	600.0	30.0		33.15073949994985	0.03332429996225983
1	28.49647389992606	stim	548		2	ambiguous	ambiguous	preferred	600.0	30.0		33.18406379991211	0.033377000014297664
1	28.529850899940357	stim	549		2	ambiguous	ambiguous	preferred	600.0	30.0		33.21744079992641	0.03375150007195771
1	28.563602400012314	stim	550		2	ambiguous	ambiguous	preferred	600.0	30.0		33.251192299998365	0.03350609994959086
1	28.597108499961905	stim	551		2	ambiguous	ambiguous	preferred	600.0	30.0		33.284698399947956	0.033259900053963065
1	28.63036840001587	stim	552		2	ambiguous	ambiguous	preferred	600.0	30.0		33.31795830000192	0.03324129991233349
1	28.6636096999282	stim	553		2	ambiguous	ambiguous	preferred	600.0	30.0		33.35119959991425	0.03332280006725341
1	28.696932499995455	stim	554		2	ambiguous	ambiguous	preferred	600.0	30.0		33.384522399981506	0.03345049999188632
1	28.73038299998734	stim	555		2	ambiguous	ambiguous	preferred	600.0	30.0		33.41797289997339	0.03364879998844117
1	28.764031799975783	stim	556		2	ambiguous	ambiguous	preferred	600.0	30.0		33.451621699961834	0.03343089995905757
1	28.79746269993484	stim	557		2	ambiguous	ambiguous	preferred	600.0	30.0		33.48505259992089	0.03380410000681877
1	28.83126679994166	stim	558		2	ambiguous	ambiguous	preferred	600.0	30.0		33.51885669992771	0.03323489998001605
1	28.864501699921675	stim	559		2	ambiguous	ambiguous	preferred	600.0	30.0		33.552091599907726	0.033239100011996925
1	28.897740799933672	stim	560		2	ambiguous	ambiguous	preferred	600.0	30.0		33.58533069991972	0.033553200075402856
1	28.931294000009075	stim	561		2	ambiguous	ambiguous	preferred	600.0	30.0		33.618883899995126	0.03319809993263334
1	28.964492099941708	stim	562		2	ambiguous	ambiguous	preferred	600.0	30.0		33.65208199992776	0.03331400000024587
1	28.997806099941954	stim	563		2	ambiguous	ambiguous	preferred	600.0	30.0		33.685395999928005	0.03340200008824468
1	29.0312081000302	stim	564		2	ambiguous	ambiguous	preferred	600.0	30.0		33.71879800001625	0.03328089998103678
1	29.064489000011235	stim	565		2	ambiguous	ambiguous	preferred	600.0	30.0		33.75207889999729	0.03337339998688549
1	29.09786239999812	stim	566		2	ambiguous	ambiguous	preferred	600.0	30.0		33.78545229998417	0.03339779993984848
1	29.13126019993797	stim	567		2	ambiguous	ambiguous	preferred	600.0	30.0		33.81885009992402	0.03328530001454055
1	29.16454549995251	stim	568		2	ambiguous	ambiguous	preferred	600.0	30.0		33.85213539993856	0.03350100002717227
1	29.198046499979682	stim	569		2	ambiguous	ambiguous	preferred	600.0	30.0		33.88563639996573	0.033242000034078956
1	29.23128850001376	stim	570		2	ambiguous	ambiguous	preferred	600.0	30.0		33.91887839999981	0.033400399959646165
1	29.264688899973407	stim	571		2	ambiguous	ambiguous	preferred	600.0	30.0		33.95227879995946	0.03320399997755885
1	29.297892899950966	stim	572		2	ambiguous	ambiguous	preferred	600.0	30.0		33.98548279993702	0.033278799965046346
1	29.331171699916013	stim	573		2	ambiguous	ambiguous	preferred	600.0	30.0		34.018761599902064	0.033330800011754036
1	29.364502499927767	stim	574		2	ambiguous	ambiguous	preferred	600.0	30.0		34.05209239991382	0.03383259999100119
1	29.398335099918768	stim	575		2	ambiguous	ambiguous	preferred	600.0	30.0		34.08592499990482	0.0334100000327453
1	29.431745099951513	stim	576		2	ambiguous	ambiguous	preferred	600.0	30.0		34.119334999937564	0.03339740005321801
1	29.46514250000473	stim	577		2	ambiguous	ambiguous	preferred	600.0	30.0		34.15273239999078	0.03322739992290735
1	29.49836989992764	stim	578		2	ambiguous	ambiguous	preferred	600.0	30.0		34.18595979991369	0.03348159999586642
1	29.531851499923505	stim	579		2	ambiguous	ambiguous	preferred	600.0	30.0		34.219441399909556	0.033141400082968175
1	29.564992900006473	stim	580		2	ambiguous	ambiguous	preferred	600.0	30.0		34.252582799992524	0.03333020000718534
1	29.59832310001366	stim	581		2	ambiguous	ambiguous	preferred	600.0	30.0		34.28591299999971	0.03356719994917512
1	29.631890299962834	stim	582		2	ambiguous	ambiguous	preferred	600.0	30.0		34.319480199948885	0.0337143000215292
1	29.665604599984363	stim	583		2	ambiguous	ambiguous	preferred	600.0	30.0		34.353194499970414	0.03319240000564605
1	29.69879699999001	stim	584		2	ambiguous	ambiguous	preferred	600.0	30.0		34.38638689997606	0.03335239994339645
1	29.732149399933405	stim	585		2	ambiguous	ambiguous	preferred	600.0	30.0		34.419739299919456	0.033305900054983795
1	29.76545529998839	stim	586		2	ambiguous	ambiguous	preferred	600.0	30.0		34.45304519997444	0.033363400027155876
1	29.798818700015545	stim	587		2	ambiguous	ambiguous	preferred	600.0	30.0		34.486408600001596	0.03330749995075166
1	29.832126199966297	stim	588		2	ambiguous	ambiguous	preferred	600.0	30.0		34.51971609995235	0.033431499963626266
1	29.865557699929923	stim	589		2	ambiguous	ambiguous	preferred	600.0	30.0		34.553147599915974	0.03335819998756051
1	29.898915899917483	stim	590		2	ambiguous	ambiguous	preferred	600.0	30.0		34.586505799903534	0.033317500026896596
1	29.93223339994438	stim	591		2	ambiguous	ambiguous	preferred	600.0	30.0		34.61982329993043	0.03342960006557405
1	29.965663000009954	stim	592		2	ambiguous	ambiguous	preferred	600.0	30.0		34.653252899996005	0.03328659990802407
1	29.998949599917978	stim	593		2	ambiguous	ambiguous	preferred	600.0	30.0		34.68653949990403	0.03340990003198385
1	30.032359499949962	stim	594		2	ambiguous	ambiguous	preferred	600.0	30.0		34.71994939993601	0.03368550003506243
1	30.066044999985024	stim	595		2	ambiguous	ambiguous	preferred	600.0	30.0		34.753634899971075	0.033593300031498075
1	30.099638300016522	stim	596		2	ambiguous	ambiguous	preferred	600.0	30.0		34.78722820000257	0.03307050000876188
1	30.132708800025284	stim	597		2	ambiguous	ambiguous	preferred	600.0	30.0		34.820298700011335	0.033421300002373755
1	30.166130100027658	stim	598		2	ambiguous	ambiguous	preferred	600.0	30.0		34.85372000001371	0.03326159995049238
1	30.19939169997815	stim	599		2	ambiguous	ambiguous	preferred	600.0	30.0		34.8869815999642	0.03338759997859597
0	30.232779299956746	stim	0		0	break	break	preferred	1.0	0.0		34.9203691999428	0.3876998999621719
0	30.62047919991892	break	0	f	600	break	break	preferred	1.0	0.0	3.5713266000384465	35.30806909990497	9.643422299996018
2	40.26390149991494	stim	0		2	unambiguous	left	preferred	71.0	0.0		44.95149139990099	0.03333810006733984
2	40.29723959998228	stim	1		2	unambiguous	left	preferred	71.0	0.0		44.98482949996833	0.03331540001090616
2	40.33055499999318	stim	2		2	unambiguous	left	preferred	71.0	0.0		45.018144899979234	0.033508799970149994
2	40.36406379996333	stim	3		2	unambiguous	left	preferred	71.0	0.0		45.051653699949384	0.033652500016614795
2	40.39771629997995	stim	4		2	unambiguous	left	preferred	71.0	0.0		45.085306199966	0.03315379994455725
2	40.430870099924505	stim	5		2	unambiguous	left	preferred	71.0	0.0		45.118459999910556	0.033347300020977855
2	40.46421739994548	stim	6		2	unambiguous	left	preferred	71.0	0.0		45.151807299931534	0.03330350003670901
2	40.49752089998219	stim	7		2	unambiguous	left	preferred	71.0	0.0		45.18511079996824	0.03333729994483292
2	40.530858199927025	stim	8		2	unambiguous	left	preferred	71.0	0.0		45.218448099913076	0.03339530003722757
2	40.56425349996425	stim	9		2	unambiguous	left	preferred	71.0	0.0		45.2518433999503	0.03347380005288869
2	40.59772730001714	stim	10		2	unambiguous	left	preferred	71.0	0.0		45.28531720000319	0.033518799929879606
2	40.63124609994702	stim	11		2	unambiguous	left	preferred	71.0	0.0		45.31883599993307	0.033394600031897426
2	40.66464069997892	stim	12		2	unambiguous	left	preferred	71.0	0.0		45.35223059996497	0.03321479994338006
2	40.6978554999223	stim	13		2	unambiguous	left	preferred	71.0	0.0		45.38544539990835	0.03338850010186434
2	40.73124400002416	stim	14		2	unambiguous	left	preferred	71.0	0.0		45.41883390001021	0.03362779994495213
2	40.764871799969114	stim	15		2	unambiguous	left	preferred	71.0	0.0		45.452461699955165	0.03335519996471703
2	40.79822699993383	stim	16		2	unambiguous	left	preferred	71.0	0.0		45.48581689991988	0.0337330000475049
2	40.831959999981336	stim	17		2	unambiguous	left	preferred	71.0	0.0		45.51954989996739	0.03325770003721118
2	40.86521770001855	stim	18		2	unambiguous	left	preferred	71.0	0.0		45.5528076000046	0.03344869997818023
2	40.89866639999673	stim	19		2	unambiguous	left	preferred	71.0	0.0		45.58625629998278	0.033289199927821755
2	40.93195559992455	stim	20		2	unambiguous	left	preferred	71.0	0.0		45.6195454999106	0.033565100049600005
2	40.96552069997415	stim	21		2	unambiguous	left	preferred	71.0	0.0		45.6531105999602	0.03348540002480149
2	40.99900609999895	stim	22		2	unambiguous	left	preferred	71.0	0.0		45.686595999985	0.03363229997921735
2	41.03263839997817	stim	23		2	unambiguous	left	preferred	71.0	0.0		45.72022829996422	0.03357640001922846
2	41.0662147999974	stim	24		2	unambiguous	left	preferred	71.0	0.0		45.75380469998345	0.0496777999214828
2	41.11589259991888	stim	25		2	unambiguous	left	preferred	71.0	0.0		45.80348249990493	0.0334301000693813
2	41.14932269998826	stim	26		2	unambiguous	left	preferred	71.0	0.0		45.83691259997431	0.03349149995483458
2	41.182814199943095	stim	27		2	unambiguous	left	preferred	71.0	0.0		45.87040409992915	0.033526599989272654
2	41.21634079993237	stim	28		2	unambiguous	left	preferred	71.0	0.0		45.90393069991842	0.03480930009391159
2	41.25115010002628	stim	29		2	unambiguous	left	preferred	71.0	0.0		45.93874000001233	0.033369199954904616
2	41.284519299981184	stim	30		2	unambiguous	left	preferred	71.0	0.0		45.972109199967235	0.03362380003090948
2	41.318143100012094	stim	31		2	unambiguous	left	preferred	71.0	0.0		46.005732999998145	0.03313759993761778
2	41.35128069994971	stim	32		2	unambiguous	left	preferred	71.0	0.0		46.03887059993576	0.03325049998238683
2	41.3845311999321	stim	33		2	unambiguous	left	preferred	71.0	0.0		46.07212109991815	0.03430699999444187
2	41.41883819992654	stim	34		2	unambiguous	left	preferred	71.0	0.0		46.10642809991259	0.032467100070789456
2	41.45130529999733	stim	35		2	unambiguous	left	preferred	71.0	0.0		46.13889519998338	0.03331189998425543
2	41.484617199981585	stim	36		2	unambiguous	left	preferred	71.0	0.0		46.172207099967636	0.033306899946182966
2	41.51792409992777	stim	37		2	unambiguous	left	preferred	71.0	0.0		46.20551399991382	0.03330310003366321
2	41.55122719996143	stim	38		2	unambiguous	left	preferred	71.0	0.0		46.23881709994748	0.03339560003951192
2	41.58462280000094	stim	39		2	unambiguous	left	preferred	71.0	0.0		46.272212699986994	0.03341439994983375
2	41.61803719995078	stim	40		2	unambiguous	left	preferred	71.0	0.0		46.30562709993683	0.03332120005507022
2	41.65135840000585	stim	41		2	unambiguous	left	preferred	71.0	0.0		46.3389482999919	0.03340559999924153
2	41.68476400000509	stim	42		2	unambiguous	left	preferred	71.0	0.0		46.37235389999114	0.033264299971051514
2	41.71802829997614	stim	43		2	unambiguous	left	preferred	71.0	0.0		46.40561819996219	0.03333490004297346
2	41.751363200019114	stim	44		2	unambiguous	left	preferred	71.0	0.0		46.438953100005165	0.03329309995751828
2	41.78465629997663	stim	45		2	unambiguous	left	preferred	71.0	0.0		46.47224619996268	0.03358389995992184
2	41.818240199936554	stim	46		2	unambiguous	left	preferred	71.0	0.0		46.505830099922605	0.03340200008824468
2	41.8516422000248	stim	47		2	unambiguous	left	preferred	71.0	0.0		46.53923210001085	0.03307689994107932
2	41.88471909996588	stim	48		2	unambiguous	left	preferred	71.0	0.0		46.57230899995193	0.0332551000174135
2	41.91797419998329	stim	49		2	unambiguous	left	preferred	71.0	0.0		46.60556409996934	0.03366239997558296
2	41.951636599958874	stim	50		2	unambiguous	left	preferred	71.0	0.0		46.639226499944925	0.033004799974150956
2	41.984641399933025	stim	51		2	unambiguous	left	preferred	71.0	0.0		46.672231299919076	0.03385580005124211
2	42.01849719998427	stim	52		2	unambiguous	left	preferred	71.0	0.0		46.70608709997032	0.03344899998046458
2	42.05194619996473	stim	53		2	unambiguous	left	preferred	71.0	0.0		46.73953609995078	0.03360269998665899
2	42.08554889995139	stim	54		2	unambiguous	left	preferred	71.0	0.0		46.77313879993744	0.03344000002834946
2	42.11898889997974	stim	55		2	unambiguous	left	preferred	71.0	0.0		46.80657879996579	0.03336440003477037
2	42.15235330001451	stim	56		2	unambiguous	left	preferred	71.0	0.0		46.83994320000056	0.0339791999431327
2	42.18633249995764	stim	57		2	unambiguous	left	preferred	71.0	0.0		46.873922399943694	0.03322760004084557
2	42.21956009999849	stim	58		2	unambiguous	left	preferred	71.0	0.0		46.90714999998454	0.033282099990174174
2	42.25284219998866	stim	59		2	unambiguous	left	preferred	71.0	0.0		46.940432099974714	0.0333478000247851
2	42.28619000001345	stim	60		2	unambiguous	left	preferred	71.0	0.0		46.9737798999995	0.03344459994696081
2	42.31963459996041	stim	61		2	unambiguous	left	preferred	71.0	0.0		47.00722449994646	0.03343549999408424
2	42.35307009995449	stim	62		2	unambiguous	left	preferred	71.0	0.0		47.040659999940544	0.033454000018537045
2	42.38652409997303	stim	63		2	unambiguous	left	preferred	71.0	0.0		47.07411399995908	0.033788700005970895
2	42.420312799979	stim	64		2	unambiguous	left	preferred	71.0	0.0		47.10790269996505	0.033457100042141974
2	42.45376990002114	stim	65		2	unambiguous	left	preferred	71.0	0.0		47.141359800007194	0.033152999938465655
2	42.48692289995961	stim	66		2	unambiguous	left	preferred	71.0	0.0		47.17451279994566	0.0334529000101611
2	42.52037579996977	stim	67		2	unambiguous	left	preferred	71.0	0.0		47.20796569995582	0.03349329996854067
2	42.55386909993831	stim	68		2	unambiguous	left	preferred	71.0	0.0		47.24145899992436	0.03322610002942383
2	42.587095199967735	stim	69		2	unambiguous	left	preferred	71.0	0.0		47.274685099953786	0.0333713999716565
2	42.62046659993939	stim	70		2	unambiguous	left	preferred	71.0	0.0		47.30805649992544	0.03356840007472783
3	42.65403500001412	stim	0		2	unambiguous	right	preferred	67.0	71.0		47.34162490000017	0.033478799974545836
3	42.687513799988665	stim	1		2	unambiguous	right	preferred	67.0	71.0		47.375103699974716	0.03346669999882579
3	42.72098049998749	stim	2		2	unambiguous	right	preferred	67.0	71.0		47.40857039997354	0.03343499999027699
3	42.75441549997777	stim	3		2	unambiguous	right	preferred	67.0	71.0		47.44200539996382	0.03330540005117655
3	42.787720900028944	stim	4		2	unambiguous	right	preferred	67.0	71.0		47.475310800014995	0.03355639998335391
3	42.8212773000123	stim	5		2	unambiguous	right	preferred	67.0	71.0		47.50886719999835	0.033806499908678234
3	42.855083799920976	stim	6		2	unambiguous	right	preferred	67.0	71.0		47.54267369990703	0.033199100056663156
3	42.88828289997764	stim	7		2	unambiguous	right	preferred	67.0	71.0		47.57587279996369	0.033407900016754866
3	42.921690799994394	stim	8		2	unambiguous	right	preferred	67.0	71.0		47.609280699980445	0.033449499984271824
3	42.955140299978666	stim	9		2	unambiguous	right	preferred	67.0	71.0		47.64273019996472	0.033656900050118566
3	42.988797200028785	stim	10		2	unambiguous	right	preferred	67.0	71.0		47.676387100014836	0.033296699984930456
3	43.022093900013715	stim	11		2	unambiguous	right	preferred	67.0	71.0		47.709683799999766	0.03380319999996573
3	43.05589710001368	stim	12		2	unambiguous	right	preferred	67.0	71.0		47.74348699999973	0.033419899991713464
3	43.089317000005394	stim	13		2	unambiguous	right	preferred	67.0	71.0		47.776906899991445	0.033738299971446395
3	43.12305529997684	stim	14		2	unambiguous	right	preferred	67.0	71.0		47.81064519996289	0.033339499961584806
3	43.156394799938425	stim	15		2	unambiguous	right	preferred	67.0	71.0		47.843984699924476	0.033295400091446936
3	43.18969020002987	stim	16		2	unambiguous	right	preferred	67.0	71.0		47.87728010001592	0.03363619989249855
3	43.22332639992237	stim	17		2	unambiguous	right	preferred	67.0	71.0		47.91091629990842	0.03364420006982982
3	43.2569705999922	stim	18		2	unambiguous	right	preferred	67.0	71.0		47.94456049997825	0.033225600025616586
3	43.29019620001782	stim	19		2	unambiguous	right	preferred	67.0	71.0		47.97778610000387	0.0334333999780938
3	43.32362959999591	stim	20		2	unambiguous	right	preferred	67.0	71.0		48.01121949998196	0.03341859998181462
3	43.357048199977726	stim	21		2	unambiguous	right	preferred	67.0	71.0		48.04463809996378	0.033619699999690056
3	43.390667899977416	stim	22		2	unambiguous	right	preferred	67.0	71.0		48.07825779996347	0.03348830004688352
3	43.4241562000243	stim	23		2	unambiguous	right	preferred	67.0	71.0		48.11174610001035	0.03355549997650087
3	43.4577117000008	stim	24		2	unambiguous	right	preferred	67.0	71.0		48.14530159998685	0.03329309995751828
3	43.49100479995832	stim	25		2	unambiguous	right	preferred	67.0	71.0		48.17859469994437	0.03336110000964254
3	43.52436589996796	stim	26		2	unambiguous	right	preferred	67.0	71.0		48.21195579995401	0.03340259997639805
3	43.55776849994436	stim	27		0	unambiguous	right	preferred	67.0	71.0		48.24535839993041	1.0119185000658035
3	44.56968700001016	right	27	f	2	unambiguous	right	preferred	67.0	71.0	2.4890534000005573	49.257276899996214	-0.9619438000954688
3	43.607743199914694	stim	28		2	unambiguous	right	preferred	67.0	71.0		48.295333099900745	0.03345580003224313
3	43.64119899994694	stim	29		2	unambiguous	right	preferred	67.0	71.0		48.32878889993299	0.033591900020837784
3	43.674790899967775	stim	30		2	unambiguous	right	preferred	67.0	71.0		48.362380799953826	0.033186999964527786
3	43.7079778999323	stim	31		2	unambiguous	right	preferred	67.0	71.0		48.395567799918354	0.03336850006598979
3	43.74134639999829	stim	32		2	unambiguous	right	preferred	67.0	71.0		48.42893629998434	0.03330799995455891
3	43.77465439995285	stim	33		2	unambiguous	right	preferred	67.0	71.0		48.4622442999389	0.03335370006971061
3	43.80800810002256	stim	34		2	unambiguous	right	preferred	67.0	71.0		48.49559800000861	0.0333400999661535
3	43.841348199988715	stim	35		2	unambiguous	right	preferred	67.0	71.0		48.528938099974766	0.03383700002450496
3	43.87518520001322	stim	36		2	unambiguous	right	preferred	67.0	71.0		48.56277509999927	0.03343569999560714
3	43.90862090000883	stim	37		2	unambiguous	right	preferred	67.0	71.0		48.59621079999488	0.032727599958889186
3	43.94134849996772	stim	38		2	unambiguous	right	preferred	67.0	71.0		48.62893839995377	0.0340295999776572
3	43.975378099945374	stim	39		2	unambiguous	right	preferred	67.0	71.0		48.662967999931425	0.03337020007893443
3	44.00874830002431	stim	40		2	unambiguous	right	preferred	67.0	71.0		48.69633820001036	0.033755999989807606
3	44.042504300014116	stim	41		2	unambiguous	right	preferred	67.0	71.0		48.73009420000017	0.0338114999467507
3	44.07631579996087	stim	42		2	unambiguous	right	preferred	67.0	71.0		48.76390569994692	0.03397340001538396
3	44.11028919997625	stim	43		2	unambiguous	right	preferred	67.0	71.0		48.7978790999623	0.03306889999657869
3	44.14335809997283	stim	44		2	unambiguous	right	preferred	67.0	71.0		48.83094799995888	0.050283299991860986
3	44.19364139996469	stim	45		2	unambiguous	right	preferred	67.0	71.0		48.88123129995074	0.0332042999798432
3	44.22684569994453	stim	46		2	unambiguous	right	preferred	67.0	71.0		48.914435599930584	0.03334239998366684
3	44.2601880999282	stim	47		2	unambiguous	right	preferred	67.0	71.0		48.94777799991425	0.03365640004631132
3	44.29384449997451	stim	48		2	unambiguous	right	preferred	67.0	71.0		48.98143439996056	0.03309449995867908
3	44.32693899993319	stim	49		2	unambiguous	right	preferred	67.0	71.0		49.01452889991924	0.033437500009313226
3	44.360376499942504	stim	50		2	unambiguous	right	preferred	67.0	71.0		49.047966399928555	0.03347859997302294
3	44.39385509991553	stim	51		2	unambiguous	right	preferred	67.0	71.0		49.08144499990158	0.03329470008611679
3	44.427149800001644	stim	52		2	unambiguous	right	preferred	67.0	71.0		49.114739699987695	0.03359210002236068
3	44.460741900024004	stim	53		2	unambiguous	right	preferred	67.0	71.0		49.148331800010055	0.03357289999257773
3	44.49431480001658	stim	54		2	unambiguous	right	preferred	67.0	71.0		49.18190470000263	0.0332591999322176
3	44.5275739999488	stim	55		2	unambiguous	right	preferred	67.0	71.0		49.21516389993485	0.03381360007915646
3	44.561387600027956	stim	56		2	unambiguous	right	preferred	67.0	71.0		49.24897750001401	0.03327529993839562
3	44.59466289996635	stim	57		2	unambiguous	right	preferred	67.0	71.0		49.2822527999524	0.033486400032415986
3	44.62814929999877	stim	58		2	unambiguous	right	preferred	67.0	71.0		49.31573919998482	0.033200299949385226
3	44.66134959994815	stim	59		2	unambiguous	right	preferred	67.0	71.0		49.348939499934204	0.033415400073863566
3	44.69476500002202	stim	60		2	unambiguous	right	preferred	67.0	71.0		49.38235490000807	0.03341119992546737
3	44.728176199947484	stim	61		2	unambiguous	right	preferred	67.0	71.0		49.415766099933535	0.033286700025200844
3	44.761462899972685	stim	62		2	unambiguous	right	preferred	67.0	71.0		49.449052799958736	0.033513300004415214
3	44.7949761999771	stim	63		2	unambiguous	right	preferred	67.0	71.0		49.48256609996315	0.033445099950768054
3	44.82842129992787	stim	64		2	unambiguous	right	preferred	67.0	71.0		49.51601119991392	0.03360150009393692
3	44.862022800021805	stim	65		2	unambiguous	right	preferred	67.0	71.0		49.549612700007856	0.03347959998063743
3	44.89550240000244	stim	66		2	unambiguous	right	preferred	67.0	71.0		49.58309229998849	0.03343539999332279
4	44.928937799995765	stim	0		2	unambiguous	left	preferred	68.0	67.0		49.616527699981816	0.033441799925640225
4	44.962379599921405	stim	1		2	unambiguous	left	preferred	68.0	67.0		49.649969499907456	0.033517800038680434
4	44.995897399960086	stim	2		2	unambiguous	left	preferred	68.0	67.0		49.68348729994614	0.033447699970565736
4	45.02934509993065	stim	3		2	unambiguous	left	preferred	68.0	67.0		49.7169349999167	0.03380279999691993
4	45.06314789992757	stim	4		2	unambiguous	left	preferred	68.0	67.0		49.75073779991362	0.0497482999926433
4	45.112896199920215	stim	5		2	unambiguous	left	preferred	68.0	67.0		49.800486099906266	0.033966500079259276
4	45.146862699999474	stim	6		2	unambiguous	left	preferred	68.0	67.0		49.834452599985525	0.03271940001286566
4	45.17958210001234	stim	7		2	unambiguous	left	preferred	68.0	67.0		49.86717199999839	0.033524799975566566
4	45.213106899987906	stim	8		2	unambiguous	left	preferred	68.0	67.0		49.90069679997396	0.03383800003211945
4	45.246944900020026	stim	9		2	unambiguous	left	preferred	68.0	67.0		49.93453480000608	0.033261099946685135
4	45.28020599996671	stim	10		2	unambiguous	left	preferred	68.0	67.0		49.96779589995276	0.03390959999524057
4	45.31411559996195	stim	11		2	unambiguous	left	preferred	68.0	67.0		50.001705499948	0.03319390001706779
4	45.34730949997902	stim	12		2	unambiguous	left	preferred	68.0	67.0		50.03489939996507	0.03333150001708418
4	45.3806409999961	stim	13		2	unambiguous	left	preferred	68.0	67.0		50.068230899982154	0.03333769994787872
4	45.41397869994398	stim	14		2	unambiguous	left	preferred	68.0	67.0		50.10156859993003	0.0337834000820294
4	45.44776210002601	stim	15		2	unambiguous	left	preferred	68.0	67.0		50.13535200001206	0.03344909998122603
4	45.48121120000724	stim	16		0	unambiguous	left	preferred	68.0	67.0		50.16880109999329	1.6787405000068247
4	47.15995170001406	left	16	j	2	unambiguous	left	preferred	68.0	67.0	1.822659199940972	51.84754160000011	-1.6277896000538021
4	45.53216209996026	stim	17		2	unambiguous	left	preferred	68.0	67.0		50.21975199994631	0.03345430002082139
4	45.56561639998108	stim	18		2	unambiguous	left	preferred	68.0	67.0		50.25320629996713	0.03333629993721843
4	45.5989526999183	stim	19		2	unambiguous	left	preferred	68.0	67.0		50.28654259990435	0.033329300000332296
4	45.63228199991863	stim	20		2	unambiguous	left	preferred	68.0	67.0		50.31987189990468	0.03522530000191182
4	45.667507299920544	stim	21		2	unambiguous	left	preferred	68.0	67.0		50.355097199906595	0.03405220003332943
4	45.70155949995387	stim	22		2	unambiguous	left	preferred	68.0	67.0		50.389149399939924	0.032879300066269934
4	45.73443880002014	stim	23		2	unambiguous	left	preferred	68.0	67.0		50.422028700006194	0.033680499996989965
4	45.76811930001713	stim	24		2	unambiguous	left	preferred	68.0	67.0		50.455709200003184	0.03308530000504106
4	45.801204600022174	stim	25		2	unambiguous	left	preferred	68.0	67.0		50.488794500008225	0.033354699960909784
4	45.834559299983084	stim	26		2	unambiguous	left	preferred	68.0	67.0		50.522149199969135	0.03338649997022003
4	45.867945799953304	stim	27		2	unambiguous	left	preferred	68.0	67.0		50.555535699939355	0.03336480003781617
4	45.90131059999112	stim	28		2	unambiguous	left	preferred	68.0	67.0		50.58890049997717	0.03316560003440827
4	45.93447620002553	stim	29		2	unambiguous	left	preferred	68.0	67.0		50.62206610001158	0.034265499911271036
4	45.9687416999368	stim	30		2	unambiguous	left	preferred	68.0	67.0		50.65633159992285	0.049067300045862794
4	46.01780899998266	stim	31		2	unambiguous	left	preferred	68.0	67.0		50.70539889996871	0.03333370003383607
4	46.0511427000165	stim	32		2	unambiguous	left	preferred	68.0	67.0		50.73873260000255	0.03377489990089089
4	46.08491759991739	stim	33		2	unambiguous	left	preferred	68.0	67.0		50.77250749990344	0.03294360009022057
4	46.11786120000761	stim	34		2	unambiguous	left	preferred	68.0	67.0		50.80545109999366	0.03331759991124272
4	46.15117879991885	stim	35		2	unambiguous	left	preferred	68.0	67.0		50.838768699904904	0.03360890003386885
4	46.18478769995272	stim	36		2	unambiguous	left	preferred	68.0	67.0		50.87237759993877	0.03301270003430545
4	46.21780039998703	stim	37		2	unambiguous	left	preferred	68.0	67.0		50.90539029997308	0.03368090000003576
4	46.25148129998706	stim	38		2	unambiguous	left	preferred	68.0	67.0		50.939071199973114	0.033370799967087805
4	46.28485209995415	stim	39		2	unambiguous	left	preferred	68.0	67.0		50.9724419999402	0.03334319998975843
4	46.31819529994391	stim	40		2	unambiguous	left	preferred	68.0	67.0		51.00578519992996	0.03343549999408424
4	46.35163079993799	stim	41		2	unambiguous	left	preferred	68.0	67.0		51.039220699924044	0.03379250003490597
4	46.3854232999729	stim	42		2	unambiguous	left	preferred	68.0	67.0		51.07301319995895	0.03316560003440827
4	46.41858890000731	stim	43		2	unambiguous	left	preferred	68.0	67.0		51.10617879999336	0.03339509991928935
4	46.4519839999266	stim	44		2	unambiguous	left	preferred	68.0	67.0		51.13957389991265	0.03357480000704527
4	46.48555879993364	stim	45		2	unambiguous	left	preferred	68.0	67.0		51.17314869991969	0.033674800070002675
4	46.519233600003645	stim	46		2	unambiguous	left	preferred	68.0	67.0		51.206823499989696	0.03352099994663149
4	46.552754599950276	stim	47		2	unambiguous	left	preferred	68.0	67.0		51.24034449993633	0.03333270002622157
4	46.5860872999765	stim	48		2	unambiguous	left	preferred	68.0	67.0		51.27367719996255	0.03374350001104176
4	46.61983079998754	stim	49		2	unambiguous	left	preferred	68.0	67.0		51.30742069997359	0.03332589997444302
4	46.65315669996198	stim	50		2	unambiguous	left	preferred	68.0	67.0		51.340746599948034	0.03331870003603399
4	46.68647539999802	stim	51		2	unambiguous	left	preferred	68.0	67.0		51.37406529998407	0.03385589993558824
4	46.720331299933605	stim	52		2	unambiguous	left	preferred	68.0	67.0		51.407921199919656	0.03300270007457584
4	46.75333400000818	stim	53		2	unambiguous	left	preferred	68.0	67.0		51.44092389999423	0.033662899979390204
4	46.78699689998757	stim	54		2	unambiguous	left	preferred	68.0	67.0		51.47458679997362	0.033302800031378865
4	46.82029970001895	stim	55		2	unambiguous	left	preferred	68.0	67.0		51.507889600005	0.03334490000270307
4	46.85364460002165	stim	56		2	unambiguous	left	preferred	68.0	67.0		51.541234500007704	0.033357599982991815
4	46.887002200004645	stim	57		2	unambiguous	left	preferred	68.0	67.0		51.574592099990696	0.033293699962086976
4	46.92029589996673	stim	58		2	unambiguous	left	preferred	68.0	67.0		51.60788579995278	0.03363820002414286
4	46.953934099990875	stim	59		2	unambiguous	left	preferred	68.0	67.0		51.641523999976926	0.03312729997560382
4	46.98706139996648	stim	60		2	unambiguous	left	preferred	68.0	67.0		51.67465129995253	0.03330700006335974
4	47.02036840002984	stim	61		2	unambiguous	left	preferred	68.0	67.0		51.70795830001589	0.03364549996331334
4	47.05401389999315	stim	62		2	unambiguous	left	preferred	68.0	67.0		51.7416037999792	0.03339949995279312
4	47.087413399945945	stim	63		2	unambiguous	left	preferred	68.0	67.0		51.775003299931996	0.033239000011235476
4	47.12065239995718	stim	64		2	unambiguous	left	preferred	68.0	67.0		51.80824229994323	0.03346209996379912
4	47.15411449992098	stim	65		2	unambiguous	left	preferred	68.0	67.0		51.84170439990703	0.033276400063186884
4	47.187390899984166	stim	66		2	unambiguous	left	preferred	68.0	67.0		51.87498079997022	0.033503999933600426
4	47.22089489991777	stim	67		2	unambiguous	left	preferred	68.0	67.0		51.90848479990382	0.033312000101432204
5	47.2542069000192	stim	0		2	unambiguous	right	preferred	71.0	68.0		51.94179680000525	0.0335002999054268
5	47.287707199924625	stim	1		2	unambiguous	right	preferred	71.0	68.0		51.97529709991068	0.03375800000503659
5	47.32146519992966	stim	2		2	unambiguous	right	preferred	71.0	68.0		52.00905509991571	0.033433300093747675
5	47.35489850002341	stim	3		2	unambiguous	right	preferred	71.0	68.0		52.04248840000946	0.03343059995677322
5	47.38832909998018	stim	4		2	unambiguous	right	preferred	71.0	68.0		52.075918999966234	0.03364859998691827
5	47.4219776999671	stim	5		2	unambiguous	right	preferred	71.0	68.0		52.10956759995315	0.03313590004108846
5	47.45511360000819	stim	6		2	unambiguous	right	preferred	71.0	68.0		52.14270349999424	0.03356899996288121
5	47.48868259997107	stim	7		2	unambiguous	right	preferred	71.0	68.0		52.17627249995712	0.03329729998949915
5	47.52197989996057	stim	8		2	unambiguous	right	preferred	71.0	68.0		52.20956979994662	0.03380410000681877
5	47.55578399996739	stim	9		2	unambiguous	right	preferred	71.0	68.0		52.24337389995344	0.033615299966186285
5	47.589399299933575	stim	10		2	unambiguous	right	preferred	71.0	68.0		52.276989199919626	0.033218400087207556
5	47.62261770002078	stim	11		2	unambiguous	right	preferred	71.0	68.0		52.310207600006834	0.033733899937942624
5	47.656351599958725	stim	12		2	unambiguous	right	preferred	71.0	68.0		52.343941499944776	0.03330380003899336
5	47.68965539999772	stim	13		2	unambiguous	right	preferred	71.0	68.0		52.37724529998377	0.03331640001852065
5	47.72297180001624	stim	14		0	unambiguous	right	preferred	71.0	68.0		52.41056170000229	1.2707167998887599
5	48.993688599905	right	14	f	2	unambiguous	right	preferred	71.0	68.0	2.2389096000697464	53.68127849989105	-1.220331299933605
5	47.773357299971394	stim	15		2	unambiguous	right	preferred	71.0	68.0		52.460947199957445	0.033221399993635714
5	47.80657869996503	stim	16		2	unambiguous	right	preferred	71.0	68.0		52.49416859995108	0.03341010003350675
5	47.83998879999854	stim	17		2	unambiguous	right	preferred	71.0	68.0		52.52757869998459	0.033606600016355515
5	47.87359540001489	stim	18		2	unambiguous	right	preferred	71.0	68.0		52.56118530000094	0.033751499955542386
5	47.907346899970435	stim	19		2	unambiguous	right	preferred	71.0	68.0		52.594936799956486	0.033308799960650504
5	47.940655699931085	stim	20		2	unambiguous	right	preferred	71.0	68.0		52.628245599917136	0.033461700077168643
5	47.974117400008254	stim	21		2	unambiguous	right	preferred	71.0	68.0		52.661707299994305	0.03359090001322329
5	48.00770830002148	stim	22		2	unambiguous	right	preferred	71.0	68.0		52.69529820000753	0.033258199924603105
5	48.04096649994608	stim	23		2	unambiguous	right	preferred	71.0	68.0		52.72855639993213	0.03336890006903559
5	48.074335400015116	stim	24		2	unambiguous	right	preferred	71.0	68.0		52.76192530000117	0.03362929995637387
5	48.10796469997149	stim	25		2	unambiguous	right	preferred	71.0	68.0		52.79555459995754	0.03396399994380772
5	48.1419286999153	stim	26		2	unambiguous	right	preferred	71.0	68.0		52.82951859990135	0.03410710010211915
5	48.17603580001742	stim	27		2	unambiguous	right	preferred	71.0	68.0		52.86362570000347	0.03347099991515279
5	48.20950679993257	stim	28		2	unambiguous	right	preferred	71.0	68.0		52.89709669991862	0.03319700004067272
5	48.24270379997324	stim	29		2	unambiguous	right	preferred	71.0	68.0		52.93029369995929	0.033205099985934794
5	48.27590889995918	stim	30		2	unambiguous	right	preferred	71.0	68.0		52.96349879994523	0.033745700027793646
5	48.30965459998697	stim	31		2	unambiguous	right	preferred	71.0	68.0		52.99724449997302	0.03355249995365739
5	48.34320709994063	stim	32		2	unambiguous	right	preferred	71.0	68.0		53.03079699992668	0.033261300064623356
5	48.37646840000525	stim	33		2	unambiguous	right	preferred	71.0	68.0		53.0640582999913	0.033309999969787896
5	48.40977839997504	stim	34		2	unambiguous	right	preferred	71.0	68.0		53.09736829996109	0.03363580000586808
5	48.44341419998091	stim	35		2	unambiguous	right	preferred	71.0	68.0		53.13100409996696	0.03329940000548959
5	48.4767135999864	stim	36		2	unambiguous	right	preferred	71.0	68.0		53.16430349997245	0.033324699965305626
5	48.5100382999517	stim	37		2	unambiguous	right	preferred	71.0	68.0		53.19762819993775	0.03334550000727177
5	48.543383799958974	stim	38		2	unambiguous	right	preferred	71.0	68.0		53.230973699945025	0.033720800071023405
5	48.57710460003	stim	39		2	unambiguous	right	preferred	71.0	68.0		53.26469450001605	0.033252499997615814
5	48.61035710002761	stim	40		2	unambiguous	right	preferred	71.0	68.0		53.297947000013664	0.0332274999236688
5	48.64358459995128	stim	41		2	unambiguous	right	preferred	71.0	68.0		53.33117449993733	0.0337260999949649
5	48.67731069994625	stim	42		2	unambiguous	right	preferred	71.0	68.0		53.3649005999323	0.033307200064882636
5	48.71061790001113	stim	43		2	unambiguous	right	preferred	71.0	68.0		53.39820779999718	0.03328689991030842
5	48.74390479992144	stim	44		2	unambiguous	right	preferred	71.0	68.0		53.43149469990749	0.033663000096566975
5	48.777567800018005	stim	45		2	unambiguous	right	preferred	71.0	68.0		53.465157700004056	0.03343660000246018
5	48.811004400020465	stim	46		2	unambiguous	right	preferred	71.0	68.0		53.498594300006516	0.03325549990404397
5	48.84425989992451	stim	47		2	unambiguous	right	preferred	71.0	68.0		53.53184979991056	0.03333340003155172
5	48.87759329995606	stim	48		2	unambiguous	right	preferred	71.0	68.0		53.56518319994211	0.033412400051020086
5	48.91100570000708	stim	49		2	unambiguous	right	preferred	71.0	68.0		53.59859559999313	0.03380849992390722
5	48.94481419993099	stim	50		2	unambiguous	right	preferred	71.0	68.0		53.63240409991704	0.03327290003653616
5	48.978087099967524	stim	51		2	unambiguous	right	preferred	71.0	68.0		53.665676999953575	0.03370929998345673
5	49.01179639995098	stim	52		2	unambiguous	right	preferred	71.0	68.0		53.69938629993703	0.03304330003447831
5	49.04483969998546	stim	53		2	unambiguous	right	preferred	71.0	68.0		53.73242959997151	0.03362210001796484
5	49.078461800003424	stim	54		2	unambiguous	right	preferred	71.0	68.0		53.766051699989475	0.03348859993275255
5	49.11195039993618	stim	55		2	unambiguous	right	preferred	71.0	68.0		53.79954029992223	0.03315849998034537
5	49.14510889991652	stim	56		2	unambiguous	right	preferred	71.0	68.0		53.83269879990257	0.0333171000238508
5	49.17842599994037	stim	57		2	unambiguous	right	preferred	71.0	68.0		53.866015899926424	0.03404709999449551
5	49.21247309993487	stim	58		2	unambiguous	right	preferred	71.0	68.0		53.90006299992092	0.03332470008172095
5	49.24579780001659	stim	59		2	unambiguous	right	preferred	71.0	68.0		53.93338770000264	0.03336829994805157
5	49.27916609996464	stim	60		2	unambiguous	right	preferred	71.0	68.0		53.96675599995069	0.033296999987214804
5	49.312463099951856	stim	61		2	unambiguous	right	preferred	71.0	68.0		54.00005299993791	0.03366299998015165
5	49.34612609993201	stim	62		2	unambiguous	right	preferred	71.0	68.0		54.03371599991806	0.03378550009801984
5	49.37991160003003	stim	63		2	unambiguous	right	preferred	71.0	68.0		54.06750150001608	0.03345489990897477
5	49.413366499939	stim	64		2	unambiguous	right	preferred	71.0	68.0		54.10095639992505	0.033043700037524104
5	49.446410199976526	stim	65		2	unambiguous	right	preferred	71.0	68.0		54.13400009996258	0.033329400001093745
5	49.47973959997762	stim	66		2	unambiguous	right	preferred	71.0	68.0		54.16732949996367	0.03331369999796152
5	49.51305329997558	stim	67		2	unambiguous	right	preferred	71.0	68.0		54.20064319996163	0.03340139996726066
5	49.54645469994284	stim	68		2	unambiguous	right	preferred	71.0	68.0		54.23404459992889	0.033470100024715066
5	49.57992479996756	stim	69		2	unambiguous	right	preferred	71.0	68.0		54.26751469995361	0.033514700015075505
5	49.61343949998263	stim	70		2	unambiguous	right	preferred	71.0	68.0		54.301029399968684	0.03401059994939715
6	49.64745009993203	stim	0		2	unambiguous	left	preferred	68.0	71.0		54.33503999991808	0.032809600001201034
6	49.68025969993323	stim	1		2	unambiguous	left	preferred	68.0	71.0		54.36784959991928	0.033348600030876696
6	49.71360829996411	stim	2		2	unambiguous	left	preferred	68.0	71.0		54.40119819995016	0.03357800003141165
6	49.74718629999552	stim	3		2	unambiguous	left	preferred	68.0	71.0		54.43477619998157	0.03341649996582419
6	49.78060279996134	stim	4		2	unambiguous	left	preferred	68.0	71.0		54.468192699947394	0.03331970004364848
6	49.81392250000499	stim	5		2	unambiguous	left	preferred	68.0	71.0		54.50151239999104	0.033452600007876754
