trial_nr	onset	event_type	phase	response	nr_frames	block_type	trial_type	block_ID	response_hand	phase_length	last_frame	key_duration	onset_abs	duration
0	0.02113639999879524	stim	0		0	ambiguous_practice	ambiguous_practice	0.0	preferred_right	300.0	0.0		12.892469800019171	10.486740999971516
0	10.507877399970312	ambiguous_practice	0	space	1	ambiguous_practice	ambiguous_practice	0.0	preferred_right	300.0	0.0	0.18462409998755902	23.379210799990688	-10.419944199966267
0	0.08793320000404492	stim	1		2	ambiguous_practice	ambiguous_practice	0.0	preferred_right	300.0	0.0		12.95926660002442	0.033156000019516796
0	0.12108920002356172	stim	2		2	ambiguous_practice	ambiguous_practice	0.0	preferred_right	300.0	0.0		12.992422600043938	0.03393370000412688
0	0.1550229000276886	stim	3		0	ambiguous_practice	ambiguous_practice	0.0	preferred_right	300.0	0.0		13.026356300048064	11.555668399960268
0	11.710691299987957	ambiguous_practice	3	space	2	ambiguous_practice	ambiguous_practice	0.0	preferred_right	300.0	0.0	0.14794479997362942	24.582024700008333	-11.505547699984163
0	0.20514360000379384	stim	4		2	ambiguous_practice	ambiguous_practice	0.0	preferred_right	300.0	0.0		13.07647700002417	0.033311399980448186
0	0.23845499998424202	stim	5		2	ambiguous_practice	ambiguous_practice	0.0	preferred_right	300.0	0.0		13.109788400004618	0.03371670003980398
0	0.272171700024046	stim	6		2	ambiguous_practice	ambiguous_practice	0.0	preferred_right	300.0	0.0		13.143505100044422	0.033474800002295524
0	0.3056465000263415	stim	7		2	ambiguous_practice	ambiguous_practice	0.0	preferred_right	300.0	0.0		13.176979900046717	0.03342809999594465
0	0.3390746000222862	stim	8		2	ambiguous_practice	ambiguous_practice	0.0	preferred_right	300.0	0.0		13.210408000042662	0.035606599994935095
0	0.37468120001722127	stim	9		2	ambiguous_practice	ambiguous_practice	0.0	preferred_right	300.0	0.0		13.246014600037597	0.03339419997064397
0	0.40807539998786524	stim	10		2	ambiguous_practice	ambiguous_practice	0.0	preferred_right	300.0	0.0		13.279408800008241	0.033289399987552315
0	0.44136479997541755	stim	11		2	ambiguous_practice	ambiguous_practice	0.0	preferred_right	300.0	0.0		13.312698199995793	0.03368430002592504
0	0.4750491000013426	stim	12		2	ambiguous_practice	ambiguous_practice	0.0	preferred_right	300.0	0.0		13.346382500021718	0.0328210000297986
0	0.5078701000311412	stim	13		2	ambiguous_practice	ambiguous_practice	0.0	preferred_right	300.0	0.0		13.379203500051517	0.03373289998853579
0	0.541603000019677	stim	14		2	ambiguous_practice	ambiguous_practice	0.0	preferred_right	300.0	0.0		13.412936400040053	0.03353049996076152
0	0.5751334999804385	stim	15		2	ambiguous_practice	ambiguous_practice	0.0	preferred_right	300.0	0.0		13.446466900000814	0.033476100012194365
0	0.6086095999926329	stim	16		2	ambiguous_practice	ambiguous_practice	0.0	preferred_right	300.0	0.0		13.479943000013009	0.033270400017499924
0	0.6418800000101328	stim	17		2	ambiguous_practice	ambiguous_practice	0.0	preferred_right	300.0	0.0		13.513213400030509	0.033302699972409755
0	0.6751826999825425	stim	18		2	ambiguous_practice	ambiguous_practice	0.0	preferred_right	300.0	0.0		13.546516100002918	0.03343370003858581
0	0.7086164000211284	stim	19		2	ambiguous_practice	ambiguous_practice	0.0	preferred_right	300.0	0.0		13.579949800041504	0.03303729998879135
0	0.7416537000099197	stim	20		2	ambiguous_practice	ambiguous_practice	0.0	preferred_right	300.0	0.0		13.612987100030296	0.03272439999273047
0	0.7743781000026502	stim	21		2	ambiguous_practice	ambiguous_practice	0.0	preferred_right	300.0	0.0		13.645711500023026	0.03418519999831915
0	0.8085633000009693	stim	22		2	ambiguous_practice	ambiguous_practice	0.0	preferred_right	300.0	0.0		13.679896700021345	0.03310250001959503
0	0.8416658000205643	stim	23		2	ambiguous_practice	ambiguous_practice	0.0	preferred_right	300.0	0.0		13.71299920004094	0.03344669996295124
0	0.8751124999835156	stim	24		2	ambiguous_practice	ambiguous_practice	0.0	preferred_right	300.0	0.0		13.746445900003891	0.033507200016174465
0	0.9086196999996901	stim	25		2	ambiguous_practice	ambiguous_practice	0.0	preferred_right	300.0	0.0		13.779953100020066	0.033319099980872124
0	0.9419387999805622	stim	26		2	ambiguous_practice	ambiguous_practice	0.0	preferred_right	300.0	0.0		13.813272200000938	0.033202100021298975
0	0.9751409000018612	stim	27		2	ambiguous_practice	ambiguous_practice	0.0	preferred_right	300.0	0.0		13.846474300022237	0.032754399988334626
0	1.0078952999901958	stim	28		2	ambiguous_practice	ambiguous_practice	0.0	preferred_right	300.0	0.0		13.879228700010572	0.034129800042137504
0	1.0420251000323333	stim	29		2	ambiguous_practice	ambiguous_practice	0.0	preferred_right	300.0	0.0		13.91335850005271	0.033615199965424836
0	1.0756402999977581	stim	30		2	ambiguous_practice	ambiguous_practice	0.0	preferred_right	300.0	0.0		13.946973700018134	0.03355510003166273
0	1.1091954000294209	stim	31		2	ambiguous_practice	ambiguous_practice	0.0	preferred_right	300.0	0.0		13.980528800049797	0.03326799999922514
0	1.142463400028646	stim	32		2	ambiguous_practice	ambiguous_practice	0.0	preferred_right	300.0	0.0		14.013796800049022	0.03334249998442829
0	1.1758059000130743	stim	33		2	ambiguous_practice	ambiguous_practice	0.0	preferred_right	300.0	0.0		14.04713930003345	0.033598900015931576
0	1.2094048000290059	stim	34		2	ambiguous_practice	ambiguous_practice	0.0	preferred_right	300.0	0.0		14.080738200049382	0.033277699956670403
0	1.2426824999856763	stim	35		2	ambiguous_practice	ambiguous_practice	0.0	preferred_right	300.0	0.0		14.114015900006052	0.03280990000348538
0	1.2754923999891616	stim	36		2	ambiguous_practice	ambiguous_practice	0.0	preferred_right	300.0	0.0		14.146825800009537	0.034077799995429814
0	1.3095701999845915	stim	37		2	ambiguous_practice	ambiguous_practice	0.0	preferred_right	300.0	0.0		14.180903600004967	0.033640500041656196
0	1.3432107000262477	stim	38		2	ambiguous_practice	ambiguous_practice	0.0	preferred_right	300.0	0.0		14.214544100046623	0.033342699985951185
0	1.3765534000121988	stim	39		2	ambiguous_practice	ambiguous_practice	0.0	preferred_right	300.0	0.0		14.247886800032575	0.033351499994751066
0	1.40990490000695	stim	40		2	ambiguous_practice	ambiguous_practice	0.0	preferred_right	300.0	0.0		14.281238300027326	0.03322149999439716
0	1.443126400001347	stim	41		2	ambiguous_practice	ambiguous_practice	0.0	preferred_right	300.0	0.0		14.314459800021723	0.03364839998539537
0	1.4767747999867424	stim	42		2	ambiguous_practice	ambiguous_practice	0.0	preferred_right	300.0	0.0		14.348108200007118	0.033085200004279613
0	1.509859999991022	stim	43		2	ambiguous_practice	ambiguous_practice	0.0	preferred_right	300.0	0.0		14.381193400011398	0.032957500021439046
0	1.542817500012461	stim	44		2	ambiguous_practice	ambiguous_practice	0.0	preferred_right	300.0	0.0		14.414150900032837	0.03389269998297095
0	1.576710199995432	stim	45		2	ambiguous_practice	ambiguous_practice	0.0	preferred_right	300.0	0.0		14.448043600015808	0.03369150002254173
0	1.6104017000179738	stim	46		2	ambiguous_practice	ambiguous_practice	0.0	preferred_right	300.0	0.0		14.48173510003835	0.03344389999983832
0	1.643845600017812	stim	47		2	ambiguous_practice	ambiguous_practice	0.0	preferred_right	300.0	0.0		14.515179000038188	0.03364669997245073
0	1.6774922999902628	stim	48		2	ambiguous_practice	ambiguous_practice	0.0	preferred_right	300.0	0.0		14.548825700010639	0.03313420002814382
0	1.7106265000184067	stim	49		2	ambiguous_practice	ambiguous_practice	0.0	preferred_right	300.0	0.0		14.581959900038783	0.03354319999925792
0	1.7441697000176646	stim	50		2	ambiguous_practice	ambiguous_practice	0.0	preferred_right	300.0	0.0		14.61550310003804	0.03271210001548752
0	1.776881800033152	stim	51		2	ambiguous_practice	ambiguous_practice	0.0	preferred_right	300.0	0.0		14.648215200053528	0.03392399998847395
0	1.810805800021626	stim	52		2	ambiguous_practice	ambiguous_practice	0.0	preferred_right	300.0	0.0		14.682139200042002	0.033322200004477054
0	1.844128000026103	stim	53		2	ambiguous_practice	ambiguous_practice	0.0	preferred_right	300.0	0.0		14.715461400046479	0.03341299999738112
0	1.8775410000234842	stim	54		2	ambiguous_practice	ambiguous_practice	0.0	preferred_right	300.0	0.0		14.74887440004386	0.03336999996099621
0	1.9109109999844804	stim	55		2	ambiguous_practice	ambiguous_practice	0.0	preferred_right	300.0	0.0		14.782244400004856	0.033268600003793836
0	1.9441795999882743	stim	56		2	ambiguous_practice	ambiguous_practice	0.0	preferred_right	300.0	0.0		14.81551300000865	0.03335660003358498
0	1.9775362000218593	stim	57		2	ambiguous_practice	ambiguous_practice	0.0	preferred_right	300.0	0.0		14.848869600042235	0.03332459996454418
0	2.0108607999864034	stim	58		2	ambiguous_practice	ambiguous_practice	0.0	preferred_right	300.0	0.0		14.88219420000678	0.03301459999056533
0	2.0438753999769688	stim	59		2	ambiguous_practice	ambiguous_practice	0.0	preferred_right	300.0	0.0		14.915208799997345	0.033778500044718385
0	2.077653900021687	stim	60		2	ambiguous_practice	ambiguous_practice	0.0	preferred_right	300.0	0.0		14.948987300042063	0.03378639998845756
0	2.1114403000101447	stim	61		2	ambiguous_practice	ambiguous_practice	0.0	preferred_right	300.0	0.0		14.98277370003052	0.03331089997664094
0	2.1447511999867857	stim	62		2	ambiguous_practice	ambiguous_practice	0.0	preferred_right	300.0	0.0		15.016084600007161	0.033357800042722374
0	2.178109000029508	stim	63		2	ambiguous_practice	ambiguous_practice	0.0	preferred_right	300.0	0.0		15.049442400049884	0.03348579996963963
0	2.2115947999991477	stim	64		2	ambiguous_practice	ambiguous_practice	0.0	preferred_right	300.0	0.0		15.082928200019524	0.033258099982049316
0	2.244852899981197	stim	65		2	ambiguous_practice	ambiguous_practice	0.0	preferred_right	300.0	0.0		15.116186300001573	0.03298499999800697
0	2.277837899979204	stim	66		2	ambiguous_practice	ambiguous_practice	0.0	preferred_right	300.0	0.0		15.14917129999958	0.033824600046500564
0	2.3116625000257045	stim	67		2	ambiguous_practice	ambiguous_practice	0.0	preferred_right	300.0	0.0		15.18299590004608	0.03340409998781979
0	2.3450666000135243	stim	68		2	ambiguous_practice	ambiguous_practice	0.0	preferred_right	300.0	0.0		15.2164000000339	0.0333223000052385
0	2.378388900018763	stim	69		2	ambiguous_practice	ambiguous_practice	0.0	preferred_right	300.0	0.0		15.249722300039139	0.03335499996319413
0	2.411743899981957	stim	70		2	ambiguous_practice	ambiguous_practice	0.0	preferred_right	300.0	0.0		15.283077300002333	0.0333849000162445
0	2.4451287999982014	stim	71		2	ambiguous_practice	ambiguous_practice	0.0	preferred_right	300.0	0.0		15.316462200018577	0.033121999993454665
0	2.478250799991656	stim	72		2	ambiguous_practice	ambiguous_practice	0.0	preferred_right	300.0	0.0		15.349584200012032	0.03326809999998659
0	2.5115188999916427	stim	73		2	ambiguous_practice	ambiguous_practice	0.0	preferred_right	300.0	0.0		15.382852300012019	0.03300729999318719
0	2.54452619998483	stim	74		2	ambiguous_practice	ambiguous_practice	0.0	preferred_right	300.0	0.0		15.415859600005206	0.03402970003662631
0	2.578555900021456	stim	75		2	ambiguous_practice	ambiguous_practice	0.0	preferred_right	300.0	0.0		15.449889300041832	0.03335799998603761
0	2.611913900007494	stim	76		2	ambiguous_practice	ambiguous_practice	0.0	preferred_right	300.0	0.0		15.48324730002787	0.03368980000959709
0	2.645603700017091	stim	77		2	ambiguous_practice	ambiguous_practice	0.0	preferred_right	300.0	0.0		15.516937100037467	0.03344249998917803
0	2.679046200006269	stim	78		2	ambiguous_practice	ambiguous_practice	0.0	preferred_right	300.0	0.0		15.550379600026645	0.03333890001522377
0	2.7123851000214927	stim	79		2	ambiguous_practice	ambiguous_practice	0.0	preferred_right	300.0	0.0		15.583718500041869	0.033406700007617474
0	2.74579180002911	stim	80		2	ambiguous_practice	ambiguous_practice	0.0	preferred_right	300.0	0.0		15.617125200049486	0.03285309998318553
0	2.7786449000122957	stim	81		2	ambiguous_practice	ambiguous_practice	0.0	preferred_right	300.0	0.0		15.649978300032672	0.033323500014375895
0	2.8119684000266716	stim	82		2	ambiguous_practice	ambiguous_practice	0.0	preferred_right	300.0	0.0		15.683301800047047	0.0337747999583371
0	2.8457431999850087	stim	83		2	ambiguous_practice	ambiguous_practice	0.0	preferred_right	300.0	0.0		15.717076600005385	0.03347550000762567
0	2.8792186999926344	stim	84		2	ambiguous_practice	ambiguous_practice	0.0	preferred_right	300.0	0.0		15.75055210001301	0.033421300002373755
0	2.912639999995008	stim	85		2	ambiguous_practice	ambiguous_practice	0.0	preferred_right	300.0	0.0		15.783973400015384	0.03322460001800209
0	2.94586460001301	stim	86		2	ambiguous_practice	ambiguous_practice	0.0	preferred_right	300.0	0.0		15.817198000033386	0.0335209000040777
0	2.979385500017088	stim	87		2	ambiguous_practice	ambiguous_practice	0.0	preferred_right	300.0	0.0		15.850718900037464	0.049651000008452684
0	3.0290365000255406	stim	88		2	ambiguous_practice	ambiguous_practice	0.0	preferred_right	300.0	0.0		15.900369900045916	0.03333109995583072
0	3.0623675999813713	stim	89		2	ambiguous_practice	ambiguous_practice	0.0	preferred_right	300.0	0.0		15.933701000001747	0.03356750000966713
0	3.0959350999910384	stim	90		2	ambiguous_practice	ambiguous_practice	0.0	preferred_right	300.0	0.0		15.967268500011414	0.03327870002249256
0	3.129213800013531	stim	91		2	ambiguous_practice	ambiguous_practice	0.0	preferred_right	300.0	0.0		16.000547200033907	0.03335629997309297
0	3.162570099986624	stim	92		2	ambiguous_practice	ambiguous_practice	0.0	preferred_right	300.0	0.0		16.033903500007	0.033609400037676096
0	3.1961795000243	stim	93		2	ambiguous_practice	ambiguous_practice	0.0	preferred_right	300.0	0.0		16.067512900044676	0.03306649997830391
0	3.229246000002604	stim	94		2	ambiguous_practice	ambiguous_practice	0.0	preferred_right	300.0	0.0		16.10057940002298	0.03289199998835102
0	3.262137999990955	stim	95		2	ambiguous_practice	ambiguous_practice	0.0	preferred_right	300.0	0.0		16.13347140001133	0.033852300024591386
0	3.2959903000155464	stim	96		2	ambiguous_practice	ambiguous_practice	0.0	preferred_right	300.0	0.0		16.167323700035922	0.03433769999537617
0	3.3303280000109226	stim	97		2	ambiguous_practice	ambiguous_practice	0.0	preferred_right	300.0	0.0		16.2016614000313	0.03323349996935576
0	3.3635614999802783	stim	98		2	ambiguous_practice	ambiguous_practice	0.0	preferred_right	300.0	0.0		16.234894900000654	0.03337660001125187
0	3.39693809999153	stim	99		2	ambiguous_practice	ambiguous_practice	0.0	preferred_right	300.0	0.0		16.268271500011906	0.03309480001917109
0	3.4300329000107013	stim	100		2	ambiguous_practice	ambiguous_practice	0.0	preferred_right	300.0	0.0		16.301366300031077	0.033723399974405766
0	3.463756299985107	stim	101		2	ambiguous_practice	ambiguous_practice	0.0	preferred_right	300.0	0.0		16.335089700005483	0.033251100045163184
0	3.49700740003027	stim	102		2	ambiguous_practice	ambiguous_practice	0.0	preferred_right	300.0	0.0		16.368340800050646	0.03289029997540638
0	3.5298977000056766	stim	103		2	ambiguous_practice	ambiguous_practice	0.0	preferred_right	300.0	0.0		16.401231100026052	0.03334690001793206
0	3.5632446000236087	stim	104		2	ambiguous_practice	ambiguous_practice	0.0	preferred_right	300.0	0.0		16.434578000043985	0.033840699994470924
0	3.5970853000180796	stim	105		2	ambiguous_practice	ambiguous_practice	0.0	preferred_right	300.0	0.0		16.468418700038455	0.033794699993450195
0	3.6308800000115298	stim	106		2	ambiguous_practice	ambiguous_practice	0.0	preferred_right	300.0	0.0		16.502213400031906	0.033287899976130575
0	3.6641678999876603	stim	107		2	ambiguous_practice	ambiguous_practice	0.0	preferred_right	300.0	0.0		16.535501300008036	0.0333847000147216
0	3.697552600002382	stim	108		2	ambiguous_practice	ambiguous_practice	0.0	preferred_right	300.0	0.0		16.568886000022758	0.033391700009815395
0	3.7309443000121973	stim	109		2	ambiguous_practice	ambiguous_practice	0.0	preferred_right	300.0	0.0		16.602277700032573	0.033289599989075214
0	3.7642339000012726	stim	110		2	ambiguous_practice	ambiguous_practice	0.0	preferred_right	300.0	0.0		16.63556730002165	0.03315219999058172
0	3.7973860999918543	stim	111		2	ambiguous_practice	ambiguous_practice	0.0	preferred_right	300.0	0.0		16.66871950001223	0.033754700038116425
0	3.8311408000299707	stim	112		2	ambiguous_practice	ambiguous_practice	0.0	preferred_right	300.0	0.0		16.702474200050347	0.033351799997035414
0	3.864492600027006	stim	113		2	ambiguous_practice	ambiguous_practice	0.0	preferred_right	300.0	0.0		16.735826000047382	0.033273299981374294
0	3.8977659000083804	stim	114		2	ambiguous_practice	ambiguous_practice	0.0	preferred_right	300.0	0.0		16.769099300028756	0.03343509999103844
0	3.931200999999419	stim	115		2	ambiguous_practice	ambiguous_practice	0.0	preferred_right	300.0	0.0		16.802534400019795	0.03318780002882704
0	3.964388800028246	stim	116		2	ambiguous_practice	ambiguous_practice	0.0	preferred_right	300.0	0.0		16.83572220004862	0.03365309996297583
0	3.9980418999912217	stim	117		2	ambiguous_practice	ambiguous_practice	0.0	preferred_right	300.0	0.0		16.869375300011598	0.03313440002966672
0	4.0311763000208884	stim	118		2	ambiguous_practice	ambiguous_practice	0.0	preferred_right	300.0	0.0		16.902509700041264	0.033443399996031076
0	4.0646197000169195	stim	119		2	ambiguous_practice	ambiguous_practice	0.0	preferred_right	300.0	0.0		16.935953100037295	0.033210699970368296
0	4.097830399987288	stim	120		2	ambiguous_practice	ambiguous_practice	0.0	preferred_right	300.0	0.0		16.969163800007664	0.0333482000278309
0	4.131178600015119	stim	121		2	ambiguous_practice	ambiguous_practice	0.0	preferred_right	300.0	0.0		17.002512000035495	0.033372199977748096
0	4.164550799992867	stim	122		2	ambiguous_practice	ambiguous_practice	0.0	preferred_right	300.0	0.0		17.035884200013243	0.033308800018858165
0	4.197859600011725	stim	123		2	ambiguous_practice	ambiguous_practice	0.0	preferred_right	300.0	0.0		17.0691930000321	0.03397019999101758
0	4.231829800002743	stim	124		2	ambiguous_practice	ambiguous_practice	0.0	preferred_right	300.0	0.0		17.10316320002312	0.03333210002165288
0	4.265161900024395	stim	125		2	ambiguous_practice	ambiguous_practice	0.0	preferred_right	300.0	0.0		17.13649530004477	0.032844999979715794
0	4.298006900004111	stim	126		2	ambiguous_practice	ambiguous_practice	0.0	preferred_right	300.0	0.0		17.169340300024487	0.03393789997790009
0	4.331944799982011	stim	127		2	ambiguous_practice	ambiguous_practice	0.0	preferred_right	300.0	0.0		17.203278200002387	0.03329610003856942
0	4.365240900020581	stim	128		2	ambiguous_practice	ambiguous_practice	0.0	preferred_right	300.0	0.0		17.236574300040957	0.03308679995825514
0	4.398327699978836	stim	129		2	ambiguous_practice	ambiguous_practice	0.0	preferred_right	300.0	0.0		17.26966109999921	0.03328610002063215
0	4.431613799999468	stim	130		2	ambiguous_practice	ambiguous_practice	0.0	preferred_right	300.0	0.0		17.302947200019844	0.03360909997718409
0	4.465222899976652	stim	131		2	ambiguous_practice	ambiguous_practice	0.0	preferred_right	300.0	0.0		17.336556299997028	0.033117700018920004
0	4.498340599995572	stim	132		2	ambiguous_practice	ambiguous_practice	0.0	preferred_right	300.0	0.0		17.369674000015948	0.03354919998673722
0	4.531889799982309	stim	133		2	ambiguous_practice	ambiguous_practice	0.0	preferred_right	300.0	0.0		17.403223200002685	0.03368580003734678
0	4.565575600019656	stim	134		2	ambiguous_practice	ambiguous_practice	0.0	preferred_right	300.0	0.0		17.436909000040032	0.033530699962284416
0	4.5991062999819405	stim	135		2	ambiguous_practice	ambiguous_practice	0.0	preferred_right	300.0	0.0		17.470439700002316	0.03339390002656728
0	4.632500200008508	stim	136		2	ambiguous_practice	ambiguous_practice	0.0	preferred_right	300.0	0.0		17.503833600028884	0.03376680001383647
0	4.666267000022344	stim	137		2	ambiguous_practice	ambiguous_practice	0.0	preferred_right	300.0	0.0		17.53760040004272	0.033324899966828525
0	4.699591899989173	stim	138		2	ambiguous_practice	ambiguous_practice	0.0	preferred_right	300.0	0.0		17.57092530000955	0.033312899991869926
0	4.732904799981043	stim	139		2	ambiguous_practice	ambiguous_practice	0.0	preferred_right	300.0	0.0		17.60423820000142	0.03366330004064366
0	4.766568100021686	stim	140		2	ambiguous_practice	ambiguous_practice	0.0	preferred_right	300.0	0.0		17.637901500042062	0.03318799997214228
0	4.799756099993829	stim	141		2	ambiguous_practice	ambiguous_practice	0.0	preferred_right	300.0	0.0		17.671089500014205	0.034216800006106496
0	4.833972899999935	stim	142		2	ambiguous_practice	ambiguous_practice	0.0	preferred_right	300.0	0.0		17.70530630002031	0.03315089998068288
0	4.867123799980618	stim	143		2	ambiguous_practice	ambiguous_practice	0.0	preferred_right	300.0	0.0		17.738457200000994	0.03332879999652505
0	4.900452599977143	stim	144		2	ambiguous_practice	ambiguous_practice	0.0	preferred_right	300.0	0.0		17.77178599999752	0.033373900048900396
0	4.9338265000260435	stim	145		2	ambiguous_practice	ambiguous_practice	0.0	preferred_right	300.0	0.0		17.80515990004642	0.033264299971051514
0	4.967090799997095	stim	146		2	ambiguous_practice	ambiguous_practice	0.0	preferred_right	300.0	0.0		17.83842420001747	0.03370680002262816
0	5.000797600019723	stim	147		2	ambiguous_practice	ambiguous_practice	0.0	preferred_right	300.0	0.0		17.8721310000401	0.03307129995664582
0	5.033868899976369	stim	148		2	ambiguous_practice	ambiguous_practice	0.0	preferred_right	300.0	0.0		17.905202299996745	0.034123700053896755
0	5.067992600030266	stim	149		2	ambiguous_practice	ambiguous_practice	0.0	preferred_right	300.0	0.0		17.93932600005064	0.033794699993450195
0	5.101787300023716	stim	150		2	ambiguous_practice	ambiguous_practice	0.0	preferred_right	300.0	0.0		17.973120700044092	0.03334949997952208
0	5.135136800003238	stim	151		2	ambiguous_practice	ambiguous_practice	0.0	preferred_right	300.0	0.0		18.006470200023614	0.03325300000142306
0	5.168389800004661	stim	152		2	ambiguous_practice	ambiguous_practice	0.0	preferred_right	300.0	0.0		18.039723200025037	0.033709999988786876
0	5.202099799993448	stim	153		2	ambiguous_practice	ambiguous_practice	0.0	preferred_right	300.0	0.0		18.073433200013824	0.03328700002748519
0	5.235386800020933	stim	154		2	ambiguous_practice	ambiguous_practice	0.0	preferred_right	300.0	0.0		18.10672020004131	0.033258399984333664
0	5.268645200005267	stim	155		2	ambiguous_practice	ambiguous_practice	0.0	preferred_right	300.0	0.0		18.139978600025643	0.032868599984794855
0	5.301513799990062	stim	156		2	ambiguous_practice	ambiguous_practice	0.0	preferred_right	300.0	0.0		18.172847200010438	0.03383080003550276
0	5.335344600025564	stim	157		2	ambiguous_practice	ambiguous_practice	0.0	preferred_right	300.0	0.0		18.20667800004594	0.0333602000027895
0	5.368704800028354	stim	158		2	ambiguous_practice	ambiguous_practice	0.0	preferred_right	300.0	0.0		18.24003820004873	0.0333719999762252
0	5.402076800004579	stim	159		2	ambiguous_practice	ambiguous_practice	0.0	preferred_right	300.0	0.0		18.273410200024955	0.033465799991972744
0	5.435542599996552	stim	160		2	ambiguous_practice	ambiguous_practice	0.0	preferred_right	300.0	0.0		18.306876000016928	0.03334670001640916
0	5.468889300012961	stim	161		2	ambiguous_practice	ambiguous_practice	0.0	preferred_right	300.0	0.0		18.340222700033337	0.03327070001978427
0	5.502160000032745	stim	162		2	ambiguous_practice	ambiguous_practice	0.0	preferred_right	300.0	0.0		18.37349340005312	0.03355579997878522
0	5.5357158000115305	stim	163		2	ambiguous_practice	ambiguous_practice	0.0	preferred_right	300.0	0.0		18.407049200031906	0.03316849999828264
0	5.568884300009813	stim	164		2	ambiguous_practice	ambiguous_practice	0.0	preferred_right	300.0	0.0		18.44021770003019	0.03360869997413829
0	5.6024929999839514	stim	165		2	ambiguous_practice	ambiguous_practice	0.0	preferred_right	300.0	0.0		18.473826400004327	0.03383289999328554
0	5.636325899977237	stim	166		2	ambiguous_practice	ambiguous_practice	0.0	preferred_right	300.0	0.0		18.507659299997613	0.03314840001985431
0	5.669474299997091	stim	167		2	ambiguous_practice	ambiguous_practice	0.0	preferred_right	300.0	0.0		18.540807700017467	0.03334850003011525
0	5.7028228000272065	stim	168		2	ambiguous_practice	ambiguous_practice	0.0	preferred_right	300.0	0.0		18.574156200047582	0.033484699961263686
0	5.73630749998847	stim	169		2	ambiguous_practice	ambiguous_practice	0.0	preferred_right	300.0	0.0		18.607640900008846	0.03317900002002716
0	5.769486500008497	stim	170		2	ambiguous_practice	ambiguous_practice	0.0	preferred_right	300.0	0.0		18.640819900028873	0.03311840002425015
0	5.8026049000327475	stim	171		2	ambiguous_practice	ambiguous_practice	0.0	preferred_right	300.0	0.0		18.673938300053123	0.03353789995890111
0	5.836142799991649	stim	172		2	ambiguous_practice	ambiguous_practice	0.0	preferred_right	300.0	0.0		18.707476200012024	0.033471600036136806
0	5.8696144000277855	stim	173		2	ambiguous_practice	ambiguous_practice	0.0	preferred_right	300.0	0.0		18.74094780004816	0.033575399953406304
0	5.903189799981192	stim	174		2	ambiguous_practice	ambiguous_practice	0.0	preferred_right	300.0	0.0		18.774523200001568	0.033088200027123094
0	5.936278000008315	stim	175		2	ambiguous_practice	ambiguous_practice	0.0	preferred_right	300.0	0.0		18.80761140002869	0.03338059998350218
0	5.969658599991817	stim	176		2	ambiguous_practice	ambiguous_practice	0.0	preferred_right	300.0	0.0		18.840992000012193	0.03338239999720827
0	6.003040999989025	stim	177		2	ambiguous_practice	ambiguous_practice	0.0	preferred_right	300.0	0.0		18.8743744000094	0.03335550002520904
0	6.036396500014234	stim	178		2	ambiguous_practice	ambiguous_practice	0.0	preferred_right	300.0	0.0		18.90772990003461	0.03379700001096353
0	6.070193500025198	stim	179		2	ambiguous_practice	ambiguous_practice	0.0	preferred_right	300.0	0.0		18.941526900045574	0.03321889997459948
0	6.103412399999797	stim	180		2	ambiguous_practice	ambiguous_practice	0.0	preferred_right	300.0	0.0		18.974745800020173	0.033339700021315366
0	6.136752100021113	stim	181		2	ambiguous_practice	ambiguous_practice	0.0	preferred_right	300.0	0.0		19.00808550004149	0.03381359996274114
0	6.170565699983854	stim	182		2	ambiguous_practice	ambiguous_practice	0.0	preferred_right	300.0	0.0		19.04189910000423	0.033250900043640286
0	6.203816600027494	stim	183		2	ambiguous_practice	ambiguous_practice	0.0	preferred_right	300.0	0.0		19.07515000004787	0.033284899953287095
0	6.237101499980781	stim	184		2	ambiguous_practice	ambiguous_practice	0.0	preferred_right	300.0	0.0		19.108434900001157	0.033374100050423294
0	6.2704756000312045	stim	185		2	ambiguous_practice	ambiguous_practice	0.0	preferred_right	300.0	0.0		19.14180900005158	0.03336809994652867
0	6.303843699977733	stim	186		2	ambiguous_practice	ambiguous_practice	0.0	preferred_right	300.0	0.0		19.17517709999811	0.03391540003940463
0	6.337759100017138	stim	187		2	ambiguous_practice	ambiguous_practice	0.0	preferred_right	300.0	0.0		19.209092500037514	0.033600499969907105
0	6.371359599987045	stim	188		2	ambiguous_practice	ambiguous_practice	0.0	preferred_right	300.0	0.0		19.24269300000742	0.03325650002807379
0	6.404616100015119	stim	189		2	ambiguous_practice	ambiguous_practice	0.0	preferred_right	300.0	0.0		19.275949500035495	0.03367039997829124
0	6.43828649999341	stim	190		2	ambiguous_practice	ambiguous_practice	0.0	preferred_right	300.0	0.0		19.309619900013786	0.033959000022150576
0	6.4722455000155605	stim	191		2	ambiguous_practice	ambiguous_practice	0.0	preferred_right	300.0	0.0		19.343578900035936	0.03320299996994436
0	6.505448499985505	stim	192		2	ambiguous_practice	ambiguous_practice	0.0	preferred_right	300.0	0.0		19.37678190000588	0.03328590001910925
0	6.538734400004614	stim	193		2	ambiguous_practice	ambiguous_practice	0.0	preferred_right	300.0	0.0		19.41006780002499	0.03338099998654798
0	6.572115399991162	stim	194		2	ambiguous_practice	ambiguous_practice	0.0	preferred_right	300.0	0.0		19.443448800011538	0.03335049998713657
0	6.605465899978299	stim	195		2	ambiguous_practice	ambiguous_practice	0.0	preferred_right	300.0	0.0		19.476799299998675	0.03331680002156645
0	6.638782699999865	stim	196		2	ambiguous_practice	ambiguous_practice	0.0	preferred_right	300.0	0.0		19.51011610002024	0.03348390001337975
0	6.672266600013245	stim	197		2	ambiguous_practice	ambiguous_practice	0.0	preferred_right	300.0	0.0		19.54360000003362	0.03548009996302426
0	6.707746699976269	stim	198		2	ambiguous_practice	ambiguous_practice	0.0	preferred_right	300.0	0.0		19.579080099996645	0.033959000022150576
0	6.74170569999842	stim	199		2	ambiguous_practice	ambiguous_practice	0.0	preferred_right	300.0	0.0		19.613039100018796	0.03343970002606511
0	6.775145400024485	stim	200		2	ambiguous_practice	ambiguous_practice	0.0	preferred_right	300.0	0.0		19.64647880004486	0.03270189999602735
0	6.807847300020512	stim	201		2	ambiguous_practice	ambiguous_practice	0.0	preferred_right	300.0	0.0		19.679180700040888	0.03388569998787716
0	6.841733000008389	stim	202		2	ambiguous_practice	ambiguous_practice	0.0	preferred_right	300.0	0.0		19.713066400028765	0.03329150000354275
0	6.875024500011932	stim	203		2	ambiguous_practice	ambiguous_practice	0.0	preferred_right	300.0	0.0		19.746357900032308	0.033609399979468435
0	6.9086338999914005	stim	204		2	ambiguous_practice	ambiguous_practice	0.0	preferred_right	300.0	0.0		19.779967300011776	0.033178300014697015
0	6.9418122000060976	stim	205		2	ambiguous_practice	ambiguous_practice	0.0	preferred_right	300.0	0.0		19.813145600026473	0.033114799996837974
0	6.9749270000029355	stim	206		2	ambiguous_practice	ambiguous_practice	0.0	preferred_right	300.0	0.0		19.84626040002331	0.03427000000374392
0	7.0091970000066794	stim	207		2	ambiguous_practice	ambiguous_practice	0.0	preferred_right	300.0	0.0		19.880530400027055	0.04902340000262484
0	7.058220400009304	stim	208		2	ambiguous_practice	ambiguous_practice	0.0	preferred_right	300.0	0.0		19.92955380002968	0.03342639998300001
0	7.091646799992304	stim	209		2	ambiguous_practice	ambiguous_practice	0.0	preferred_right	300.0	0.0		19.96298020001268	0.033384200010914356
0	7.125031000003219	stim	210		2	ambiguous_practice	ambiguous_practice	0.0	preferred_right	300.0	0.0		19.996364400023594	0.03406209999229759
0	7.159093099995516	stim	211		2	ambiguous_practice	ambiguous_practice	0.0	preferred_right	300.0	0.0		20.030426500015892	0.04994520003674552
0	7.209038300032262	stim	212		2	ambiguous_practice	ambiguous_practice	0.0	preferred_right	300.0	0.0		20.080371700052638	0.032554299978073686
0	7.2415926000103354	stim	213		2	ambiguous_practice	ambiguous_practice	0.0	preferred_right	300.0	0.0		20.11292600003071	0.03285590000450611
0	7.274448500014842	stim	214		2	ambiguous_practice	ambiguous_practice	0.0	preferred_right	300.0	0.0		20.145781900035217	0.033898499968927354
0	7.308346999983769	stim	215		2	ambiguous_practice	ambiguous_practice	0.0	preferred_right	300.0	0.0		20.179680400004145	0.034142700023949146
0	7.342489700007718	stim	216		2	ambiguous_practice	ambiguous_practice	0.0	preferred_right	300.0	0.0		20.213823100028094	0.04986079997615889
0	7.392350499983877	stim	217		2	ambiguous_practice	ambiguous_practice	0.0	preferred_right	300.0	0.0		20.263683900004253	0.049178300017956644
0	7.441528800001834	stim	218		2	ambiguous_practice	ambiguous_practice	0.0	preferred_right	300.0	0.0		20.31286220002221	0.03335410001454875
0	7.474882900016382	stim	219		2	ambiguous_practice	ambiguous_practice	0.0	preferred_right	300.0	0.0		20.346216300036758	0.03293469996424392
0	7.507817599980626	stim	220		2	ambiguous_practice	ambiguous_practice	0.0	preferred_right	300.0	0.0		20.379151000001002	0.033657200052402914
0	7.541474800033029	stim	221		2	ambiguous_practice	ambiguous_practice	0.0	preferred_right	300.0	0.0		20.412808200053405	0.03352519997861236
0	7.5750000000116415	stim	222		2	ambiguous_practice	ambiguous_practice	0.0	preferred_right	300.0	0.0		20.446333400032017	0.033249199972487986
0	7.6082491999841295	stim	223		2	ambiguous_practice	ambiguous_practice	0.0	preferred_right	300.0	0.0		20.479582600004505	0.03325790003873408
0	7.641507100022864	stim	224		2	ambiguous_practice	ambiguous_practice	0.0	preferred_right	300.0	0.0		20.51284050004324	0.03340979997301474
0	7.674916899995878	stim	225		2	ambiguous_practice	ambiguous_practice	0.0	preferred_right	300.0	0.0		20.546250300016254	0.033313099993392825
0	7.708229999989271	stim	226		2	ambiguous_practice	ambiguous_practice	0.0	preferred_right	300.0	0.0		20.579563400009647	0.03345119999721646
0	7.741681199986488	stim	227		2	ambiguous_practice	ambiguous_practice	0.0	preferred_right	300.0	0.0		20.613014600006863	0.032756000000517815
0	7.774437199987005	stim	228		2	ambiguous_practice	ambiguous_practice	0.0	preferred_right	300.0	0.0		20.64577060000738	0.03370930004166439
0	7.80814650002867	stim	229		2	ambiguous_practice	ambiguous_practice	0.0	preferred_right	300.0	0.0		20.679479900049046	0.03330189996631816
0	7.841448399994988	stim	230		2	ambiguous_practice	ambiguous_practice	0.0	preferred_right	300.0	0.0		20.712781800015364	0.033366399991791695
0	7.87481479998678	stim	231		2	ambiguous_practice	ambiguous_practice	0.0	preferred_right	300.0	0.0		20.746148200007156	0.03354189998935908
0	7.908356699976139	stim	232		2	ambiguous_practice	ambiguous_practice	0.0	preferred_right	300.0	0.0		20.779690099996515	0.033243500045500696
0	7.9416002000216395	stim	233		2	ambiguous_practice	ambiguous_practice	0.0	preferred_right	300.0	0.0		20.812933600042015	0.03328470000997186
0	7.974884900031611	stim	234		2	ambiguous_practice	ambiguous_practice	0.0	preferred_right	300.0	0.0		20.846218300051987	0.033414899953641
0	8.008299799985252	stim	235		2	ambiguous_practice	ambiguous_practice	0.0	preferred_right	300.0	0.0		20.879633200005628	0.03310060000512749
0	8.04140039999038	stim	236		2	ambiguous_practice	ambiguous_practice	0.0	preferred_right	300.0	0.0		20.912733800010756	0.03323790000285953
0	8.07463829999324	stim	237		2	ambiguous_practice	ambiguous_practice	0.0	preferred_right	300.0	0.0		20.945971700013615	0.03379570000106469
0	8.108433999994304	stim	238		2	ambiguous_practice	ambiguous_practice	0.0	preferred_right	300.0	0.0		20.97976740001468	0.03347850003046915
0	8.141912500024773	stim	239		2	ambiguous_practice	ambiguous_practice	0.0	preferred_right	300.0	0.0		21.01324590004515	0.0328942000051029
0	8.174806700029876	stim	240		2	ambiguous_practice	ambiguous_practice	0.0	preferred_right	300.0	0.0		21.046140100050252	0.03360739996423945
0	8.208414099994116	stim	241		2	ambiguous_practice	ambiguous_practice	0.0	preferred_right	300.0	0.0		21.07974750001449	0.03305199998430908
0	8.241466099978425	stim	242		2	ambiguous_practice	ambiguous_practice	0.0	preferred_right	300.0	0.0		21.1127994999988	0.03314480005064979
0	8.274610900029074	stim	243		2	ambiguous_practice	ambiguous_practice	0.0	preferred_right	300.0	0.0		21.14594430004945	0.03435939998598769
0	8.308970300015062	stim	244		2	ambiguous_practice	ambiguous_practice	0.0	preferred_right	300.0	0.0		21.180303700035438	0.03326369996648282
0	8.342233999981545	stim	245		2	ambiguous_practice	ambiguous_practice	0.0	preferred_right	300.0	0.0		21.21356740000192	0.03346960002090782
0	8.375703600002453	stim	246		2	ambiguous_practice	ambiguous_practice	0.0	preferred_right	300.0	0.0		21.24703700002283	0.03325590002350509
0	8.408959500025958	stim	247		2	ambiguous_practice	ambiguous_practice	0.0	preferred_right	300.0	0.0		21.280292900046334	0.033373699989169836
0	8.442333200015128	stim	248		2	ambiguous_practice	ambiguous_practice	0.0	preferred_right	300.0	0.0		21.313666600035504	0.03325709997443482
0	8.475590299989562	stim	249		2	ambiguous_practice	ambiguous_practice	0.0	preferred_right	300.0	0.0		21.34692370000994	0.03342340001836419
0	8.509013700007927	stim	250		2	ambiguous_practice	ambiguous_practice	0.0	preferred_right	300.0	0.0		21.380347100028303	0.033138300001155585
0	8.542152000009082	stim	251		2	ambiguous_practice	ambiguous_practice	0.0	preferred_right	300.0	0.0		21.413485400029458	0.03391699999338016
0	8.576069000002462	stim	252		2	ambiguous_practice	ambiguous_practice	0.0	preferred_right	300.0	0.0		21.44740240002284	0.03338219999568537
0	8.609451199998148	stim	253		2	ambiguous_practice	ambiguous_practice	0.0	preferred_right	300.0	0.0		21.480784600018524	0.03347110003232956
0	8.642922300030477	stim	254		2	ambiguous_practice	ambiguous_practice	0.0	preferred_right	300.0	0.0		21.514255700050853	0.033265599980950356
0	8.676187900011428	stim	255		2	ambiguous_practice	ambiguous_practice	0.0	preferred_right	300.0	0.0		21.547521300031804	0.0333717999747023
0	8.70955969998613	stim	256		2	ambiguous_practice	ambiguous_practice	0.0	preferred_right	300.0	0.0		21.580893100006506	0.0332602999988012
0	8.742819999984931	stim	257		2	ambiguous_practice	ambiguous_practice	0.0	preferred_right	300.0	0.0		21.614153400005307	0.03357309999410063
0	8.776393099979032	stim	258		2	ambiguous_practice	ambiguous_practice	0.0	preferred_right	300.0	0.0		21.647726499999408	0.033132500015199184
0	8.809525599994231	stim	259		2	ambiguous_practice	ambiguous_practice	0.0	preferred_right	300.0	0.0		21.680859000014607	0.03358360001584515
0	8.843109200010076	stim	260		2	ambiguous_practice	ambiguous_practice	0.0	preferred_right	300.0	0.0		21.714442600030452	0.03328689996851608
0	8.876396099978592	stim	261		2	ambiguous_practice	ambiguous_practice	0.0	preferred_right	300.0	0.0		21.747729499998968	0.03349280002294108
0	8.909888900001533	stim	262		2	ambiguous_practice	ambiguous_practice	0.0	preferred_right	300.0	0.0		21.78122230002191	0.03321000002324581
0	8.94309890002478	stim	263		2	ambiguous_practice	ambiguous_practice	0.0	preferred_right	300.0	0.0		21.814432300045155	0.033447899972088635
0	8.976546799996868	stim	264		2	ambiguous_practice	ambiguous_practice	0.0	preferred_right	300.0	0.0		21.847880200017244	0.033613900013733655
0	9.010160700010601	stim	265		2	ambiguous_practice	ambiguous_practice	0.0	preferred_right	300.0	0.0		21.881494100030977	0.03279919998021796
0	9.04295989999082	stim	266		2	ambiguous_practice	ambiguous_practice	0.0	preferred_right	300.0	0.0		21.914293300011195	0.03377640002872795
0	9.076736300019547	stim	267		2	ambiguous_practice	ambiguous_practice	0.0	preferred_right	300.0	0.0		21.948069700039923	0.033541199984028935
0	9.110277500003576	stim	268		2	ambiguous_practice	ambiguous_practice	0.0	preferred_right	300.0	0.0		21.981610900023952	0.033498500008136034
0	9.143776000011712	stim	269		2	ambiguous_practice	ambiguous_practice	0.0	preferred_right	300.0	0.0		22.015109400032088	0.03309779998380691
0	9.17687379999552	stim	270		2	ambiguous_practice	ambiguous_practice	0.0	preferred_right	300.0	0.0		22.048207200015895	0.033593000029213727
0	9.210466800024733	stim	271		2	ambiguous_practice	ambiguous_practice	0.0	preferred_right	300.0	0.0		22.08180020004511	0.033273299981374294
0	9.243740100006107	stim	272		2	ambiguous_practice	ambiguous_practice	0.0	preferred_right	300.0	0.0		22.115073500026483	0.03287930000806227
0	9.27661940001417	stim	273		2	ambiguous_practice	ambiguous_practice	0.0	preferred_right	300.0	0.0		22.147952800034545	0.03326319996267557
0	9.309882599976845	stim	274		2	ambiguous_practice	ambiguous_practice	0.0	preferred_right	300.0	0.0		22.18121599999722	0.034394900023471564
0	9.344277500000317	stim	275		2	ambiguous_practice	ambiguous_practice	0.0	preferred_right	300.0	0.0		22.215610900020692	0.03314790001604706
0	9.377425400016364	stim	276		2	ambiguous_practice	ambiguous_practice	0.0	preferred_right	300.0	0.0		22.24875880003674	0.033449499984271824
0	9.410874900000636	stim	277		2	ambiguous_practice	ambiguous_practice	0.0	preferred_right	300.0	0.0		22.28220830002101	0.033138200000394136
0	9.44401310000103	stim	278		2	ambiguous_practice	ambiguous_practice	0.0	preferred_right	300.0	0.0		22.315346500021406	0.033453100011684
0	9.477466200012714	stim	279		2	ambiguous_practice	ambiguous_practice	0.0	preferred_right	300.0	0.0		22.34879960003309	0.03338829998392612
0	9.51085449999664	stim	280		2	ambiguous_practice	ambiguous_practice	0.0	preferred_right	300.0	0.0		22.382187900017016	0.0329687999910675
0	9.543823299987707	stim	281		2	ambiguous_practice	ambiguous_practice	0.0	preferred_right	300.0	0.0		22.415156700008083	0.03348580002784729
0	9.577309100015555	stim	282		2	ambiguous_practice	ambiguous_practice	0.0	preferred_right	300.0	0.0		22.44864250003593	0.03366660000756383
0	9.610975700023118	stim	283		2	ambiguous_practice	ambiguous_practice	0.0	preferred_right	300.0	0.0		22.482309100043494	0.03351290000136942
0	9.644488600024488	stim	284		2	ambiguous_practice	ambiguous_practice	0.0	preferred_right	300.0	0.0		22.515822000044864	0.03323349996935576
0	9.677722099993844	stim	285		2	ambiguous_practice	ambiguous_practice	0.0	preferred_right	300.0	0.0		22.54905550001422	0.03358089999528602
0	9.71130299998913	stim	286		2	ambiguous_practice	ambiguous_practice	0.0	preferred_right	300.0	0.0		22.582636400009505	0.033339700021315366
0	9.744642700010445	stim	287		2	ambiguous_practice	ambiguous_practice	0.0	preferred_right	300.0	0.0		22.61597610003082	0.033268700004555285
0	9.777911400015	stim	288		2	ambiguous_practice	ambiguous_practice	0.0	preferred_right	300.0	0.0		22.649244800035376	0.0328690999886021
0	9.810780500003602	stim	289		2	ambiguous_practice	ambiguous_practice	0.0	preferred_right	300.0	0.0		22.682113900023978	0.033923299983143806
0	9.844703799986746	stim	290		2	ambiguous_practice	ambiguous_practice	0.0	preferred_right	300.0	0.0		22.716037200007122	0.033323700015898794
0	9.878027500002645	stim	291		2	ambiguous_practice	ambiguous_practice	0.0	preferred_right	300.0	0.0		22.74936090002302	0.033813200017903
0	9.911840700020548	stim	292		2	ambiguous_practice	ambiguous_practice	0.0	preferred_right	300.0	0.0		22.783174100040924	0.03315819997806102
0	9.944998899998609	stim	293		2	ambiguous_practice	ambiguous_practice	0.0	preferred_right	300.0	0.0		22.816332300018985	0.03356920002261177
0	9.97856810002122	stim	294		2	ambiguous_practice	ambiguous_practice	0.0	preferred_right	300.0	0.0		22.849901500041597	0.033407999959308654
0	10.01197609998053	stim	295		2	ambiguous_practice	ambiguous_practice	0.0	preferred_right	300.0	0.0		22.883309500000905	0.0328635000041686
0	10.044839599984698	stim	296		2	ambiguous_practice	ambiguous_practice	0.0	preferred_right	300.0	0.0		22.916173000005074	0.033843700017314404
0	10.078683300002012	stim	297		2	ambiguous_practice	ambiguous_practice	0.0	preferred_right	300.0	0.0		22.95001670002239	0.03354400000534952
0	10.112227300007362	stim	298		2	ambiguous_practice	ambiguous_practice	0.0	preferred_right	300.0	0.0		22.983560700027738	0.033230000000912696
0	10.145457300008275	stim	299		2	ambiguous_practice	ambiguous_practice	0.0	preferred_right	300.0	0.0		23.01679070002865	2.1003233999945223
0	12.245780700002797	stim	0		2	unambiguous_practice	left	0.0	preferred_right	92.0	0.0		25.117114100023173	0.03282299998681992
0	12.278603699989617	stim	1		2	unambiguous_practice	left	0.0	preferred_right	92.0	0.0		25.149937100009993	0.03341880004154518
0	12.312022500031162	stim	2		2	unambiguous_practice	left	0.0	preferred_right	92.0	0.0		25.183355900051538	0.03410109999822453
0	12.346123600029387	stim	3		2	unambiguous_practice	left	0.0	preferred_right	92.0	0.0		25.217457000049762	0.033388599986210465
0	12.379512200015597	stim	4		2	unambiguous_practice	left	0.0	preferred_right	92.0	0.0		25.250845600035973	0.0330792999593541
0	12.412591499974951	stim	5		2	unambiguous_practice	left	0.0	preferred_right	92.0	0.0		25.283924899995327	0.03353810001863167
0	12.446129599993583	stim	6		2	unambiguous_practice	left	0.0	preferred_right	92.0	0.0		25.31746300001396	0.03318979998584837
0	12.479319399979431	stim	7		2	unambiguous_practice	left	0.0	preferred_right	92.0	0.0		25.350652799999807	0.0336832000175491
0	12.51300259999698	stim	8		2	unambiguous_practice	left	0.0	preferred_right	92.0	0.0		25.384336000017356	0.032978200004436076
0	12.545980800001416	stim	9		2	unambiguous_practice	left	0.0	preferred_right	92.0	0.0		25.417314200021792	0.0332664999878034
0	12.57924729998922	stim	10		2	unambiguous_practice	left	0.0	preferred_right	92.0	0.0		25.450580700009596	0.03385200002230704
0	12.613099300011527	stim	11		2	unambiguous_practice	left	0.0	preferred_right	92.0	0.0		25.484432700031903	0.03352320002159104
0	12.646622500033118	stim	12		2	unambiguous_practice	left	0.0	preferred_right	92.0	0.0		25.517955900053494	0.0333462999551557
0	12.679968799988274	stim	13		2	unambiguous_practice	left	0.0	preferred_right	92.0	0.0		25.55130220000865	0.03329900000244379
0	12.713267799990717	stim	14		2	unambiguous_practice	left	0.0	preferred_right	92.0	0.0		25.584601200011093	0.033371200028341264
0	12.746639000019059	stim	15		2	unambiguous_practice	left	0.0	preferred_right	92.0	0.0		25.617972400039434	0.03332459996454418
0	12.779963599983603	stim	16		2	unambiguous_practice	left	0.0	preferred_right	92.0	0.0		25.65129700000398	0.03297790000215173
0	12.812941499985754	stim	17		2	unambiguous_practice	left	0.0	preferred_right	92.0	0.0		25.68427490000613	0.033959000022150576
0	12.846900500007905	stim	18		2	unambiguous_practice	left	0.0	preferred_right	92.0	0.0		25.71823390002828	0.03336900001158938
0	12.880269500019494	stim	19		2	unambiguous_practice	left	0.0	preferred_right	92.0	0.0		25.75160290003987	0.03320080001140013
0	12.913470300030895	stim	20		2	unambiguous_practice	left	0.0	preferred_right	92.0	0.0		25.78480370005127	0.033363399968948215
0	12.946833699999843	stim	21		2	unambiguous_practice	left	0.0	preferred_right	92.0	0.0		25.81816710002022	0.03339980001328513
0	12.980233500013128	stim	22		2	unambiguous_practice	left	0.0	preferred_right	92.0	0.0		25.851566900033504	0.03339120000600815
0	13.013624700019136	stim	23		2	unambiguous_practice	left	0.0	preferred_right	92.0	0.0		25.884958100039512	0.03290940000442788
0	13.046534100023564	stim	24		2	unambiguous_practice	left	0.0	preferred_right	92.0	0.0		25.91786750004394	0.03373639995697886
0	13.080270499980543	stim	25		2	unambiguous_practice	left	0.0	preferred_right	92.0	0.0		25.95160390000092	0.03338200005237013
0	13.113652500032913	stim	26		2	unambiguous_practice	left	0.0	preferred_right	92.0	0.0		25.98498590005329	0.03350939997471869
0	13.147161900007632	stim	27		2	unambiguous_practice	left	0.0	preferred_right	92.0	0.0		26.018495300028007	0.033590300008654594
0	13.180752200016286	stim	28		2	unambiguous_practice	left	0.0	preferred_right	92.0	0.0		26.052085600036662	0.03335250000236556
0	13.214104700018652	stim	29		2	unambiguous_practice	left	0.0	preferred_right	92.0	0.0		26.085438100039028	0.03326299996115267
0	13.247367699979804	stim	30		2	unambiguous_practice	left	0.0	preferred_right	92.0	0.0		26.11870110000018	0.033046299999114126
0	13.280413999978919	stim	31		2	unambiguous_practice	left	0.0	preferred_right	92.0	0.0		26.151747399999294	0.033211000030860305
0	13.313625000009779	stim	32		2	unambiguous_practice	left	0.0	preferred_right	92.0	0.0		26.184958400030155	0.03390629997011274
0	13.347531299979892	stim	33		2	unambiguous_practice	left	0.0	preferred_right	92.0	0.0		26.218864700000267	0.033378300024196506
0	13.380909600004088	stim	34		2	unambiguous_practice	left	0.0	preferred_right	92.0	0.0		26.252243000024464	0.03346499998588115
0	13.41437459998997	stim	35		2	unambiguous_practice	left	0.0	preferred_right	92.0	0.0		26.285708000010345	0.03326960001140833
0	13.447644200001378	stim	36		2	unambiguous_practice	left	0.0	preferred_right	92.0	0.0		26.318977600021753	0.03316539997467771
0	13.480809599976055	stim	37		2	unambiguous_practice	left	0.0	preferred_right	92.0	0.0		26.35214299999643	0.033671600045636296
0	13.514481200021692	stim	38		2	unambiguous_practice	left	0.0	preferred_right	92.0	0.0		26.385814600042067	0.032787200005259365
0	13.547268400026951	stim	39		2	unambiguous_practice	left	0.0	preferred_right	92.0	0.0		26.418601800047327	0.03378159995190799
0	13.581049999978859	stim	40		2	unambiguous_practice	left	0.0	preferred_right	92.0	0.0		26.452383399999235	0.03372480004327372
0	13.614774800022133	stim	41		2	unambiguous_practice	left	0.0	preferred_right	92.0	0.0		26.48610820004251	0.03331189998425543
0	13.648086700006388	stim	42		2	unambiguous_practice	left	0.0	preferred_right	92.0	0.0		26.519420100026764	0.033182499988470227
0	13.681269199994858	stim	43		2	unambiguous_practice	left	0.0	preferred_right	92.0	0.0		26.552602600015234	0.03357500000856817
0	13.714844200003427	stim	44		2	unambiguous_practice	left	0.0	preferred_right	92.0	0.0		26.586177600023802	0.033311599981971085
0	13.748155799985398	stim	45		2	unambiguous_practice	left	0.0	preferred_right	92.0	0.0		26.619489200005773	0.033593200030736625
0	13.781749000016134	stim	46		2	unambiguous_practice	left	0.0	preferred_right	92.0	0.0		26.65308240003651	0.0330248000100255
0	13.81477380002616	stim	47		2	unambiguous_practice	left	0.0	preferred_right	92.0	0.0		26.686107200046536	0.03396009997231886
0	13.848733899998479	stim	48		2	unambiguous_practice	left	0.0	preferred_right	92.0	0.0		26.720067300018854	0.03321630001300946
0	13.881950200011488	stim	49		2	unambiguous_practice	left	0.0	preferred_right	92.0	0.0		26.753283600031864	0.033391500008292496
0	13.91534170001978	stim	50		2	unambiguous_practice	left	0.0	preferred_right	92.0	0.0		26.786675100040156	0.033345700008794665
0	13.948687400028575	stim	51		2	unambiguous_practice	left	0.0	preferred_right	92.0	0.0		26.82002080004895	0.03346039995085448
0	13.98214779997943	stim	52		2	unambiguous_practice	left	0.0	preferred_right	92.0	0.0		26.853481199999806	0.03334530000574887
0	14.015493099985179	stim	53		2	unambiguous_practice	left	0.0	preferred_right	92.0	0.0		26.886826500005554	0.03312979999464005
0	14.048622899979819	stim	54		2	unambiguous_practice	left	0.0	preferred_right	92.0	0.0		26.919956300000194	0.033694100042339414
0	14.082317000022158	stim	55		2	unambiguous_practice	left	0.0	preferred_right	92.0	0.0		26.953650400042534	0.03338320000329986
0	14.115700200025458	stim	56		2	unambiguous_practice	left	0.0	preferred_right	92.0	0.0		26.987033600045834	0.032828499970491976
0	14.14852869999595	stim	57		2	unambiguous_practice	left	0.0	preferred_right	92.0	0.0		27.019862100016326	0.03374029998667538
0	14.182268999982625	stim	58		2	unambiguous_practice	left	0.0	preferred_right	92.0	0.0		27.053602400003	0.03299130004597828
0	14.215260300028604	stim	59		2	unambiguous_practice	left	0.0	preferred_right	92.0	0.0		27.08659370004898	0.03342239995254204
0	14.248682699981146	stim	60		2	unambiguous_practice	left	0.0	preferred_right	92.0	0.0		27.12001610000152	0.03291650000028312
0	14.281599199981429	stim	61		2	unambiguous_practice	left	0.0	preferred_right	92.0	0.0		27.152932600001805	0.03341269999509677
0	14.315011899976525	stim	62		2	unambiguous_practice	left	0.0	preferred_right	92.0	0.0		27.1863452999969	0.033933800004888326
0	14.348945699981414	stim	63		2	unambiguous_practice	left	0.0	preferred_right	92.0	0.0		27.22027910000179	0.03330680000362918
0	14.382252499985043	stim	64		2	unambiguous_practice	left	0.0	preferred_right	92.0	0.0		27.25358590000542	0.03334090003045276
0	14.415593400015496	stim	65		2	unambiguous_practice	left	0.0	preferred_right	92.0	0.0		27.28692680003587	0.03325749997748062
0	14.448850899992976	stim	66		2	unambiguous_practice	left	0.0	preferred_right	92.0	0.0		27.320184300013352	0.03359280002769083
0	14.482443700020667	stim	67		2	unambiguous_practice	left	0.0	preferred_right	92.0	0.0		27.353777100041043	0.03304889996070415
0	14.515492599981371	stim	68		2	unambiguous_practice	left	0.0	preferred_right	92.0	0.0		27.386826000001747	0.03290640003979206
0	14.548399000021163	stim	69		2	unambiguous_practice	left	0.0	preferred_right	92.0	0.0		27.41973240004154	0.03370799997355789
0	14.582106999994721	stim	70		2	unambiguous_practice	left	0.0	preferred_right	92.0	0.0		27.453440400015097	0.033353100006934255
0	14.615460100001656	stim	71		2	unambiguous_practice	left	0.0	preferred_right	92.0	0.0		27.48679350002203	0.03328899998450652
0	14.648749099986162	stim	72		2	unambiguous_practice	left	0.0	preferred_right	92.0	0.0		27.520082500006538	0.03422080003656447
0	14.682969900022727	stim	73		2	unambiguous_practice	left	0.0	preferred_right	92.0	0.0		27.554303300043102	0.033201799960806966
0	14.716171699983533	stim	74		2	unambiguous_practice	left	0.0	preferred_right	92.0	0.0		27.58750510000391	0.03340990003198385
0	14.749581600015517	stim	75		2	unambiguous_practice	left	0.0	preferred_right	92.0	0.0		27.620915000035893	0.033311699982732534
0	14.78289329999825	stim	76		2	unambiguous_practice	left	0.0	preferred_right	92.0	0.0		27.654226700018626	0.032853599986992776
0	14.815746899985243	stim	77		2	unambiguous_practice	left	0.0	preferred_right	92.0	0.0		27.68708030000562	0.033880400005728006
0	14.84962729999097	stim	78		2	unambiguous_practice	left	0.0	preferred_right	92.0	0.0		27.720960700011346	0.03326840000227094
0	14.882895699993242	stim	79		2	unambiguous_practice	left	0.0	preferred_right	92.0	0.0		27.754229100013617	0.03340160002699122
0	14.916297300020233	stim	80		2	unambiguous_practice	left	0.0	preferred_right	92.0	0.0		27.78763070004061	0.03343650000169873
0	14.949733800021932	stim	81		2	unambiguous_practice	left	0.0	preferred_right	92.0	0.0		27.821067200042307	0.033708599978126585
0	14.983442400000058	stim	82		2	unambiguous_practice	left	0.0	preferred_right	92.0	0.0		27.854775800020434	0.03313499997602776
0	15.016577399976086	stim	83		2	unambiguous_practice	left	0.0	preferred_right	92.0	0.0		27.88791079999646	0.03306770004564896
0	15.049645100021735	stim	84		2	unambiguous_practice	left	0.0	preferred_right	92.0	0.0		27.92097850004211	0.03356609999900684
0	15.083211200020742	stim	85		2	unambiguous_practice	left	0.0	preferred_right	92.0	0.0		27.954544600041118	0.03392089996486902
0	15.11713209998561	stim	86		2	unambiguous_practice	left	0.0	preferred_right	92.0	0.0		27.988465500005987	0.033544100006110966
0	15.150676199991722	stim	87		2	unambiguous_practice	left	0.0	preferred_right	92.0	0.0		28.022009600012098	0.033590100007131696
0	15.184266299998853	stim	88		2	unambiguous_practice	left	0.0	preferred_right	92.0	0.0		28.05559970001923	0.03341869998257607
0	15.21768499998143	stim	89		2	unambiguous_practice	left	0.0	preferred_right	92.0	0.0		28.089018400001805	0.03295810002600774
0	15.250643100007437	stim	90		2	unambiguous_practice	left	0.0	preferred_right	92.0	0.0		28.121976500027813	0.03324249997967854
0	15.283885599987116	stim	91		2	unambiguous_practice	left	0.0	preferred_right	92.0	0.0		28.15521900000749	0.03440910001518205
1	15.318294700002298	stim	0		2	unambiguous_practice	right	0.0	preferred_right	87.0	92.0		28.189628100022674	0.033385700022336096
1	15.351680400024634	stim	1		2	unambiguous_practice	right	0.0	preferred_right	87.0	92.0		28.22301380004501	0.03326219995506108
1	15.384942599979695	stim	2		2	unambiguous_practice	right	0.0	preferred_right	87.0	92.0		28.25627600000007	0.03338390000863001
1	15.418326499988325	stim	3		2	unambiguous_practice	right	0.0	preferred_right	87.0	92.0		28.2896599000087	0.03324730001622811
1	15.451573800004553	stim	4		2	unambiguous_practice	right	0.0	preferred_right	87.0	92.0		28.32290720002493	0.03351430001202971
1	15.485088100016583	stim	5		2	unambiguous_practice	right	0.0	preferred_right	87.0	92.0		28.35642150003696	0.033428800001274794
1	15.518516900017858	stim	6		2	unambiguous_practice	right	0.0	preferred_right	87.0	92.0		28.389850300038233	0.03282239998225123
1	15.551339300000109	stim	7		2	unambiguous_practice	right	0.0	preferred_right	87.0	92.0		28.422672700020485	0.03391240001656115
1	15.58525170001667	stim	8		2	unambiguous_practice	right	0.0	preferred_right	87.0	92.0		28.456585100037046	0.0333089999621734
1	15.618560699978843	stim	9		2	unambiguous_practice	right	0.0	preferred_right	87.0	92.0		28.48989409999922	0.03342470002826303
1	15.651985400007106	stim	10		2	unambiguous_practice	right	0.0	preferred_right	87.0	92.0		28.523318800027482	0.033266999991610646
1	15.685252399998717	stim	11		2	unambiguous_practice	right	0.0	preferred_right	87.0	92.0		28.556585800019093	0.03346770000644028
1	15.718720100005157	stim	12		2	unambiguous_practice	right	0.0	preferred_right	87.0	92.0		28.590053500025533	0.03361709997989237
1	15.75233719998505	stim	13		2	unambiguous_practice	right	0.0	preferred_right	87.0	92.0		28.623670600005426	0.033966600021813065
1	15.786303800006863	stim	14		2	unambiguous_practice	right	0.0	preferred_right	87.0	92.0		28.65763720002724	0.04969770001480356
1	15.836001500021666	stim	15		2	unambiguous_practice	right	0.0	preferred_right	87.0	92.0		28.707334900042042	0.03370369999902323
1	15.86970520002069	stim	16		2	unambiguous_practice	right	0.0	preferred_right	87.0	92.0		28.741038600041065	0.03341059997910634
1	15.903115799999796	stim	17		2	unambiguous_practice	right	0.0	preferred_right	87.0	92.0		28.77444920002017	0.033514600014314055
1	15.93663040001411	stim	18		2	unambiguous_practice	right	0.0	preferred_right	87.0	92.0		28.807963800034486	0.03362830000696704
1	15.970258700021077	stim	19		2	unambiguous_practice	right	0.0	preferred_right	87.0	92.0		28.841592100041453	0.03338380000786856
1	16.003642500028946	stim	20		2	unambiguous_practice	right	0.0	preferred_right	87.0	92.0		28.87497590004932	0.03335929999593645
1	16.037001800024882	stim	21		2	unambiguous_practice	right	0.0	preferred_right	87.0	92.0		28.908335200045258	0.033437399950344115
1	16.070439199975226	stim	22		2	unambiguous_practice	right	0.0	preferred_right	87.0	92.0		28.941772599995602	0.03343420004239306
1	16.10387340001762	stim	23		2	unambiguous_practice	right	0.0	preferred_right	87.0	92.0		28.975206800037995	0.03332699998281896
1	16.137200400000438	stim	24		2	unambiguous_practice	right	0.0	preferred_right	87.0	92.0		29.008533800020814	0.033526599989272654
1	16.17072699998971	stim	25		2	unambiguous_practice	right	0.0	preferred_right	87.0	92.0		29.042060400010087	0.033507200016174465
1	16.204234200005885	stim	26		2	unambiguous_practice	right	0.0	preferred_right	87.0	92.0		29.07556760002626	0.033394699974451214
1	16.237628899980336	stim	27		2	unambiguous_practice	right	0.0	preferred_right	87.0	92.0		29.108962300000712	0.03323660005116835
1	16.270865500031505	stim	28		2	unambiguous_practice	right	0.0	preferred_right	87.0	92.0		29.14219890005188	0.03324439999414608
1	16.30410990002565	stim	29		2	unambiguous_practice	right	0.0	preferred_right	87.0	92.0		29.175443300046027	0.03378609998617321
1	16.337896000011824	stim	30		2	unambiguous_practice	right	0.0	preferred_right	87.0	92.0		29.2092294000322	0.0335023999796249
1	16.37139839999145	stim	31		2	unambiguous_practice	right	0.0	preferred_right	87.0	92.0		29.242731800011825	0.03343120001954958
1	16.404829600011	stim	32		2	unambiguous_practice	right	0.0	preferred_right	87.0	92.0		29.276163000031374	0.033508699969388545
1	16.438338299980387	stim	33		2	unambiguous_practice	right	0.0	preferred_right	87.0	92.0		29.309671700000763	0.03332400001818314
1	16.47166229999857	stim	34		2	unambiguous_practice	right	0.0	preferred_right	87.0	92.0		29.342995700018946	0.03362990001915023
1	16.50529220001772	stim	35		2	unambiguous_practice	right	0.0	preferred_right	87.0	92.0		29.376625600038096	0.035227299958933145
1	16.540519499976654	stim	36		2	unambiguous_practice	right	0.0	preferred_right	87.0	92.0		29.41185289999703	0.0335155000211671
1	16.57403499999782	stim	37		2	unambiguous_practice	right	0.0	preferred_right	87.0	92.0		29.445368400018197	0.03361370001221076
1	16.60764870001003	stim	38		2	unambiguous_practice	right	0.0	preferred_right	87.0	92.0		29.478982100030407	0.03374029998667538
1	16.641388999996707	stim	39		2	unambiguous_practice	right	0.0	preferred_right	87.0	92.0		29.512722400017083	0.033007999998517334
1	16.674396999995224	stim	40		2	unambiguous_practice	right	0.0	preferred_right	87.0	92.0		29.5457304000156	0.03334630001336336
1	16.707743300008588	stim	41		2	unambiguous_practice	right	0.0	preferred_right	87.0	92.0		29.579076700028963	0.033520600001793355
1	16.74126390001038	stim	42		2	unambiguous_practice	right	0.0	preferred_right	87.0	92.0		29.612597300030757	0.033616999979130924
1	16.774880899989512	stim	43		2	unambiguous_practice	right	0.0	preferred_right	87.0	92.0		29.646214300009888	0.032634500006679446
1	16.80751539999619	stim	44		2	unambiguous_practice	right	0.0	preferred_right	87.0	92.0		29.678848800016567	0.03403249999973923
1	16.84154789999593	stim	45		2	unambiguous_practice	right	0.0	preferred_right	87.0	92.0		29.712881300016306	0.033160599996335804
1	16.874708499992266	stim	46		2	unambiguous_practice	right	0.0	preferred_right	87.0	92.0		29.746041900012642	0.03349050000542775
1	16.908198999997694	stim	47		2	unambiguous_practice	right	0.0	preferred_right	87.0	92.0		29.77953240001807	0.03307549998862669
1	16.94127449998632	stim	48		2	unambiguous_practice	right	0.0	preferred_right	87.0	92.0		29.812607900006697	0.0335270999930799
1	16.9748015999794	stim	49		2	unambiguous_practice	right	0.0	preferred_right	87.0	92.0		29.846134999999776	0.033230200002435595
1	17.008031799981836	stim	50		2	unambiguous_practice	right	0.0	preferred_right	87.0	92.0		29.879365200002212	0.033298099995590746
1	17.041329899977427	stim	51		2	unambiguous_practice	right	0.0	preferred_right	87.0	92.0		29.912663299997803	0.0333111000363715
1	17.0746410000138	stim	52		2	unambiguous_practice	right	0.0	preferred_right	87.0	92.0		29.945974400034174	0.033622599963564426
1	17.108263599977363	stim	53		2	unambiguous_practice	right	0.0	preferred_right	87.0	92.0		29.97959699999774	0.033347100019454956
1	17.141610699996818	stim	54		2	unambiguous_practice	right	0.0	preferred_right	87.0	92.0		30.012944100017194	0.03308979998109862
1	17.174700499977916	stim	55		2	unambiguous_practice	right	0.0	preferred_right	87.0	92.0		30.046033899998292	0.03351840004324913
1	17.208218900021166	stim	56		2	unambiguous_practice	right	0.0	preferred_right	87.0	92.0		30.07955230004154	0.033363299968186766
1	17.241582199989352	stim	57		2	unambiguous_practice	right	0.0	preferred_right	87.0	92.0		30.112915600009728	0.03309760004049167
1	17.274679800029844	stim	58		2	unambiguous_practice	right	0.0	preferred_right	87.0	92.0		30.14601320005022	0.0348297999589704
1	17.309509599988814	stim	59		2	unambiguous_practice	right	0.0	preferred_right	87.0	92.0		30.18084300000919	0.033053899998776615
1	17.34256349998759	stim	60		2	unambiguous_practice	right	0.0	preferred_right	87.0	92.0		30.213896900007967	0.03345170000102371
1	17.376015199988615	stim	61		2	unambiguous_practice	right	0.0	preferred_right	87.0	92.0		30.24734860000899	0.0336146000190638
1	17.40962980000768	stim	62		2	unambiguous_practice	right	0.0	preferred_right	87.0	92.0		30.280963200028054	0.033367900003213435
1	17.442997700010892	stim	63		2	unambiguous_practice	right	0.0	preferred_right	87.0	92.0		30.314331100031268	0.03341450000880286
1	17.476412200019695	stim	64		2	unambiguous_practice	right	0.0	preferred_right	87.0	92.0		30.34774560004007	0.0328497999580577
1	17.509261999977753	stim	65		2	unambiguous_practice	right	0.0	preferred_right	87.0	92.0		30.38059539999813	0.03358070005197078
1	17.542842700029723	stim	66		2	unambiguous_practice	right	0.0	preferred_right	87.0	92.0		30.4141761000501	0.03343679994577542
1	17.5762794999755	stim	67		2	unambiguous_practice	right	0.0	preferred_right	87.0	92.0		30.447612899995875	0.033267100050579756
1	17.60954660002608	stim	68		2	unambiguous_practice	right	0.0	preferred_right	87.0	92.0		30.480880000046454	0.03323109995108098
1	17.64277769997716	stim	69		2	unambiguous_practice	right	0.0	preferred_right	87.0	92.0		30.514111099997535	0.03342910000355914
1	17.67620679998072	stim	70		2	unambiguous_practice	right	0.0	preferred_right	87.0	92.0		30.547540200001094	0.03367510001407936
1	17.709881899994798	stim	71		2	unambiguous_practice	right	0.0	preferred_right	87.0	92.0		30.581215300015174	0.03323100000852719
1	17.743112900003325	stim	72		2	unambiguous_practice	right	0.0	preferred_right	87.0	92.0		30.6144463000237	0.032890999980736524
1	17.77600389998406	stim	73		2	unambiguous_practice	right	0.0	preferred_right	87.0	92.0		30.647337300004438	0.033739800041075796
1	17.809743700025138	stim	74		2	unambiguous_practice	right	0.0	preferred_right	87.0	92.0		30.681077100045513	0.03345309995347634
1	17.843196799978614	stim	75		2	unambiguous_practice	right	0.0	preferred_right	87.0	92.0		30.71453019999899	0.033319000038318336
1	17.876515800016932	stim	76		2	unambiguous_practice	right	0.0	preferred_right	87.0	92.0		30.747849200037308	0.03326210001250729
1	17.90977790002944	stim	77		2	unambiguous_practice	right	0.0	preferred_right	87.0	92.0		30.781111300049815	0.03323639999143779
1	17.943014300020877	stim	78		2	unambiguous_practice	right	0.0	preferred_right	87.0	92.0		30.814347700041253	0.03368980000959709
1	17.976704100030474	stim	79		2	unambiguous_practice	right	0.0	preferred_right	87.0	92.0		30.84803750005085	0.033265499980188906
1	18.009969600010663	stim	80		2	unambiguous_practice	right	0.0	preferred_right	87.0	92.0		30.88130300003104	0.03281579999020323
1	18.042785400000867	stim	81		2	unambiguous_practice	right	0.0	preferred_right	87.0	92.0		30.914118800021242	0.03386219998355955
1	18.076647599984426	stim	82		2	unambiguous_practice	right	0.0	preferred_right	87.0	92.0		30.947981000004802	0.03328770003281534
1	18.10993530001724	stim	83		2	unambiguous_practice	right	0.0	preferred_right	87.0	92.0		30.981268700037617	0.03338989999610931
1	18.14332520001335	stim	84		2	unambiguous_practice	right	0.0	preferred_right	87.0	92.0		31.014658600033727	0.03333309997105971
1	18.17665829998441	stim	85		2	unambiguous_practice	right	0.0	preferred_right	87.0	92.0		31.047991700004786	0.03338020003866404
1	18.210038500023074	stim	86		2	unambiguous_practice	right	0.0	preferred_right	87.0	92.0		31.08137190004345	0.0332357999868691
2	18.243274300009944	stim	0		2	unambiguous_practice	left	0.0	preferred_right	94.0	179.0		31.11460770003032	0.0330252000130713
2	18.276299500023015	stim	1		2	unambiguous_practice	left	0.0	preferred_right	94.0	179.0		31.14763290004339	0.03330309997545555
2	18.30960259999847	stim	2		2	unambiguous_practice	left	0.0	preferred_right	94.0	179.0		31.180936000018846	0.03392630000598729
2	18.343528900004458	stim	3		2	unambiguous_practice	left	0.0	preferred_right	94.0	179.0		31.214862300024834	0.03307800000766292
2	18.37660690001212	stim	4		2	unambiguous_practice	left	0.0	preferred_right	94.0	179.0		31.247940300032496	0.033868799975607544
2	18.410475699987728	stim	5		2	unambiguous_practice	left	0.0	preferred_right	94.0	179.0		31.281809100008104	0.03328420000616461
2	18.443759899993893	stim	6		2	unambiguous_practice	left	0.0	preferred_right	94.0	179.0		31.31509330001427	0.03338690003147349
2	18.477146800025366	stim	7		2	unambiguous_practice	left	0.0	preferred_right	94.0	179.0		31.348480200045742	0.03361119999317452
2	18.51075800001854	stim	8		2	unambiguous_practice	left	0.0	preferred_right	94.0	179.0		31.382091400038917	0.032967799983453006
2	18.543725800001994	stim	9		2	unambiguous_practice	left	0.0	preferred_right	94.0	179.0		31.41505920002237	0.033369300013873726
2	18.577095100015868	stim	10		2	unambiguous_practice	left	0.0	preferred_right	94.0	179.0		31.448428500036243	0.03365050000138581
2	18.610745600017253	stim	11		2	unambiguous_practice	left	0.0	preferred_right	94.0	179.0		31.48207900003763	0.03364239999791607
2	18.64438800001517	stim	12		2	unambiguous_practice	left	0.0	preferred_right	94.0	179.0		31.515721400035545	0.03320589999202639
2	18.677593900007196	stim	13		2	unambiguous_practice	left	0.0	preferred_right	94.0	179.0		31.54892730002757	0.03422480000881478
2	18.71181870001601	stim	14		2	unambiguous_practice	left	0.0	preferred_right	94.0	179.0		31.583152100036386	0.03375810000579804
2	18.74557680002181	stim	15		2	unambiguous_practice	left	0.0	preferred_right	94.0	179.0		31.616910200042184	0.033074499981012195
2	18.77865130000282	stim	16		2	unambiguous_practice	left	0.0	preferred_right	94.0	179.0		31.649984700023197	0.032800399989355356
2	18.811451699992176	stim	17		2	unambiguous_practice	left	0.0	preferred_right	94.0	179.0		31.682785100012552	0.03380460001062602
2	18.845256300002802	stim	18		2	unambiguous_practice	left	0.0	preferred_right	94.0	179.0		31.716589700023178	0.03343880001921207
2	18.878695100022014	stim	19		2	unambiguous_practice	left	0.0	preferred_right	94.0	179.0		31.75002850004239	0.03328119998332113
2	18.911976300005335	stim	20		2	unambiguous_practice	left	0.0	preferred_right	94.0	179.0		31.78330970002571	0.033264399971812963
2	18.94524069997715	stim	21		2	unambiguous_practice	left	0.0	preferred_right	94.0	179.0		31.816574099997524	0.03342370002064854
2	18.978664399997797	stim	22		2	unambiguous_practice	left	0.0	preferred_right	94.0	179.0		31.849997800018173	0.033605100004933774
2	19.01226950000273	stim	23		2	unambiguous_practice	left	0.0	preferred_right	94.0	179.0		31.883602900023106	0.03288999997312203
2	19.045159499975853	stim	24		2	unambiguous_practice	left	0.0	preferred_right	94.0	179.0		31.91649289999623	0.03395260003162548
2	19.079112100007478	stim	25		2	unambiguous_practice	left	0.0	preferred_right	94.0	179.0		31.950445500027854	0.033302499970886856
2	19.112414599978365	stim	26		2	unambiguous_practice	left	0.0	preferred_right	94.0	179.0		31.98374799999874	0.03390340000623837
2	19.146317999984603	stim	27		2	unambiguous_practice	left	0.0	preferred_right	94.0	179.0		32.01765140000498	0.03333120001479983
2	19.179649199999403	stim	28		2	unambiguous_practice	left	0.0	preferred_right	94.0	179.0		32.05098260001978	0.03327130002435297
2	19.212920500023756	stim	29		2	unambiguous_practice	left	0.0	preferred_right	94.0	179.0		32.08425390004413	0.0334904000046663
2	19.246410900028422	stim	30		2	unambiguous_practice	left	0.0	preferred_right	94.0	179.0		32.1177443000488	0.03269039996666834
2	19.27910129999509	stim	31		2	unambiguous_practice	left	0.0	preferred_right	94.0	179.0		32.15043470001547	0.03366620000451803
2	19.31276749999961	stim	32		2	unambiguous_practice	left	0.0	preferred_right	94.0	179.0		32.184100900019985	0.033892499981448054
2	19.346659999981057	stim	33		2	unambiguous_practice	left	0.0	preferred_right	94.0	179.0		32.21799340000143	0.03325930004939437
2	19.37991930003045	stim	34		2	unambiguous_practice	left	0.0	preferred_right	94.0	179.0		32.25125270005083	0.03343969996785745
2	19.41335899999831	stim	35		2	unambiguous_practice	left	0.0	preferred_right	94.0	179.0		32.284692400018685	0.03325129998847842
2	19.446610299986787	stim	36		2	unambiguous_practice	left	0.0	preferred_right	94.0	179.0		32.31794370000716	0.03338199999416247
2	19.47999229998095	stim	37		2	unambiguous_practice	left	0.0	preferred_right	94.0	179.0		32.351325700001325	0.03301070001907647
2	19.513003000000026	stim	38		2	unambiguous_practice	left	0.0	preferred_right	94.0	179.0		32.3843364000204	0.03308979998109862
2	19.546092799981125	stim	39		2	unambiguous_practice	left	0.0	preferred_right	94.0	179.0		32.4174262000015	0.03393010003492236
2	19.580022900016047	stim	40		2	unambiguous_practice	left	0.0	preferred_right	94.0	179.0		32.45135630003642	0.03318319999380037
2	19.613206100009847	stim	41		2	unambiguous_practice	left	0.0	preferred_right	94.0	179.0		32.48453950003022	0.033570699975825846
2	19.646776799985673	stim	42		2	unambiguous_practice	left	0.0	preferred_right	94.0	179.0		32.51811020000605	0.033295300032477826
2	19.68007210001815	stim	43		2	unambiguous_practice	left	0.0	preferred_right	94.0	179.0		32.55140550003853	0.033176700002513826
2	19.713248800020665	stim	44		2	unambiguous_practice	left	0.0	preferred_right	94.0	179.0		32.58458220004104	0.03366690000984818
2	19.746915700030513	stim	45		2	unambiguous_practice	left	0.0	preferred_right	94.0	179.0		32.61824910005089	0.03318009997019544
2	19.78009580000071	stim	46		2	unambiguous_practice	left	0.0	preferred_right	94.0	179.0		32.651429200021084	0.03275409998605028
2	19.81284989998676	stim	47		2	unambiguous_practice	left	0.0	preferred_right	94.0	179.0		32.684183300007135	0.033899800037033856
2	19.846749700023793	stim	48		2	unambiguous_practice	left	0.0	preferred_right	94.0	179.0		32.71808310004417	0.03346760000567883
2	19.88021730002947	stim	49		2	unambiguous_practice	left	0.0	preferred_right	94.0	179.0		32.75155070004985	0.03316219995031133
2	19.913379499979783	stim	50		2	unambiguous_practice	left	0.0	preferred_right	94.0	179.0		32.78471290000016	0.03346629999577999
2	19.946845799975563	stim	51		2	unambiguous_practice	left	0.0	preferred_right	94.0	179.0		32.81817919999594	0.033664300048258156
2	19.98051010002382	stim	52		2	unambiguous_practice	left	0.0	preferred_right	94.0	179.0		32.8518435000442	0.03349860000889748
2	20.01400870003272	stim	53		2	unambiguous_practice	left	0.0	preferred_right	94.0	179.0		32.885342100053094	0.03325459995539859
2	20.047263299988117	stim	54		2	unambiguous_practice	left	0.0	preferred_right	94.0	179.0		32.91859670000849	0.033924799994565547
2	20.081188099982683	stim	55		2	unambiguous_practice	left	0.0	preferred_right	94.0	179.0		32.95252150000306	0.033071700017899275
2	20.114259800000582	stim	56		2	unambiguous_practice	left	0.0	preferred_right	94.0	179.0		32.98559320002096	0.0333787000272423
2	20.147638500027824	stim	57		2	unambiguous_practice	left	0.0	preferred_right	94.0	179.0		33.0189719000482	0.03353199997218326
2	20.181170500000007	stim	58		2	unambiguous_practice	left	0.0	preferred_right	94.0	179.0		33.05250390002038	0.0333536000107415
2	20.21452410001075	stim	59		2	unambiguous_practice	left	0.0	preferred_right	94.0	179.0		33.085857500031125	0.03328590001910925
2	20.247810000029858	stim	60		2	unambiguous_practice	left	0.0	preferred_right	94.0	179.0		33.119143400050234	0.033602099982090294
2	20.28141210001195	stim	61		2	unambiguous_practice	left	0.0	preferred_right	94.0	179.0		33.152745500032324	0.03407270001480356
2	20.315484800026752	stim	62		2	unambiguous_practice	left	0.0	preferred_right	94.0	179.0		33.18681820004713	0.033258399984333664
2	20.348743200011086	stim	63		2	unambiguous_practice	left	0.0	preferred_right	94.0	179.0		33.22007660003146	0.033241999975871295
2	20.381985199986957	stim	64		2	unambiguous_practice	left	0.0	preferred_right	94.0	179.0		33.25331860000733	0.03337459999602288
2	20.41535979998298	stim	65		2	unambiguous_practice	left	0.0	preferred_right	94.0	179.0		33.286693200003356	0.03389360004803166
2	20.44925340003101	stim	66		2	unambiguous_practice	left	0.0	preferred_right	94.0	179.0		33.32058680005139	0.03339279995998368
2	20.482646199990995	stim	67		2	unambiguous_practice	left	0.0	preferred_right	94.0	179.0		33.35397960001137	0.03365739999571815
2	20.516303599986713	stim	68		2	unambiguous_practice	left	0.0	preferred_right	94.0	179.0		33.38763700000709	0.032677600043825805
2	20.54898120003054	stim	69		2	unambiguous_practice	left	0.0	preferred_right	94.0	179.0		33.420314600050915	0.033896999957505614
2	20.582878199988045	stim	70		2	unambiguous_practice	left	0.0	preferred_right	94.0	179.0		33.45421160000842	0.033576700021512806
2	20.616454900009558	stim	71		2	unambiguous_practice	left	0.0	preferred_right	94.0	179.0		33.48778830002993	0.03328899998450652
2	20.649743899994064	stim	72		2	unambiguous_practice	left	0.0	preferred_right	94.0	179.0		33.52107730001444	0.03317890001926571
2	20.68292280001333	stim	73		2	unambiguous_practice	left	0.0	preferred_right	94.0	179.0		33.554256200033706	0.03368699998827651
2	20.716609800001606	stim	74		2	unambiguous_practice	left	0.0	preferred_right	94.0	179.0		33.58794320002198	0.033323300012853
2	20.74993310001446	stim	75		2	unambiguous_practice	left	0.0	preferred_right	94.0	179.0		33.621266500034835	0.03336130001116544
2	20.783294400025625	stim	76		2	unambiguous_practice	left	0.0	preferred_right	94.0	179.0		33.654627800046	0.03330759995151311
2	20.816601999977138	stim	77		2	unambiguous_practice	left	0.0	preferred_right	94.0	179.0		33.687935399997514	0.03424580005230382
2	20.85084780002944	stim	78		2	unambiguous_practice	left	0.0	preferred_right	94.0	179.0		33.72218120004982	0.032985600002575666
2	20.883833400032017	stim	79		2	unambiguous_practice	left	0.0	preferred_right	94.0	179.0		33.75516680005239	0.033370899967849255
2	20.917204299999867	stim	80		2	unambiguous_practice	left	0.0	preferred_right	94.0	179.0		33.78853770002024	0.03354169998783618
2	20.950745999987703	stim	81		2	unambiguous_practice	left	0.0	preferred_right	94.0	179.0		33.82207940000808	0.033492300019133836
2	20.984238300006837	stim	82		2	unambiguous_practice	left	0.0	preferred_right	94.0	179.0		33.85557170002721	0.03338360000634566
2	21.017621900013182	stim	83		2	unambiguous_practice	left	0.0	preferred_right	94.0	179.0		33.88895530003356	0.03301179996924475
2	21.050633699982427	stim	84		2	unambiguous_practice	left	0.0	preferred_right	94.0	179.0		33.9219671000028	0.033766500011552125
2	21.08440019999398	stim	85		2	unambiguous_practice	left	0.0	preferred_right	94.0	179.0		33.955733600014355	0.033514600014314055
2	21.117914800008293	stim	86		2	unambiguous_practice	left	0.0	preferred_right	94.0	179.0		33.98924820002867	0.033316100016236305
2	21.15123090002453	stim	87		2	unambiguous_practice	left	0.0	preferred_right	94.0	179.0		34.022564300044905	0.033426999987568706
2	21.1846579000121	stim	88		2	unambiguous_practice	left	0.0	preferred_right	94.0	179.0		34.055991300032474	0.033406500006094575
2	21.218064400018193	stim	89		2	unambiguous_practice	left	0.0	preferred_right	94.0	179.0		34.08939780003857	0.03283849998842925
2	21.250902900006622	stim	90		2	unambiguous_practice	left	0.0	preferred_right	94.0	179.0		34.122236300027	0.033133700024336576
2	21.28403660003096	stim	91		2	unambiguous_practice	left	0.0	preferred_right	94.0	179.0		34.155370000051335	0.03393559996038675
2	21.317972199991345	stim	92		2	unambiguous_practice	left	0.0	preferred_right	94.0	179.0		34.18930560001172	0.03336470003705472
2	21.3513369000284	stim	93		2	unambiguous_practice	left	0.0	preferred_right	94.0	179.0		34.222670300048776	0.033421200001612306
3	21.384758100030012	stim	0		2	unambiguous_practice	right	0.0	preferred_right	26.0	83.0		34.25609150005039	0.03319479996571317
3	21.417952899995726	stim	1		2	unambiguous_practice	right	0.0	preferred_right	26.0	83.0		34.2892863000161	0.03333130001556128
3	21.451284200011287	stim	2		2	unambiguous_practice	right	0.0	preferred_right	26.0	83.0		34.32261760003166	0.033569599967449903
3	21.484853799978737	stim	3		2	unambiguous_practice	right	0.0	preferred_right	26.0	83.0		34.35618719999911	0.03358100005425513
3	21.518434800032992	stim	4		2	unambiguous_practice	right	0.0	preferred_right	26.0	83.0		34.38976820005337	0.0331049999804236
3	21.551539800013416	stim	5		2	unambiguous_practice	right	0.0	preferred_right	26.0	83.0		34.42287320003379	0.03403079998679459
3	21.58557060000021	stim	6		2	unambiguous_practice	right	0.0	preferred_right	26.0	83.0		34.456904000020586	0.03417579998495057
3	21.61974639998516	stim	7		2	unambiguous_practice	right	0.0	preferred_right	26.0	83.0		34.49107980000554	0.03256030002376065
3	21.65230670000892	stim	8		2	unambiguous_practice	right	0.0	preferred_right	26.0	83.0		34.5236401000293	0.03358489996753633
3	21.685891599976458	stim	9		2	unambiguous_practice	right	0.0	preferred_right	26.0	83.0		34.55722499999683	0.03339860000414774
3	21.719290199980605	stim	10		2	unambiguous_practice	right	0.0	preferred_right	26.0	83.0		34.59062360000098	0.03334520000498742
3	21.752635399985593	stim	11		2	unambiguous_practice	right	0.0	preferred_right	26.0	83.0		34.62396880000597	0.03362850000848994
3	21.786263899994083	stim	12		2	unambiguous_practice	right	0.0	preferred_right	26.0	83.0		34.65759730001446	0.03358610003488138
3	21.819850000028964	stim	13		2	unambiguous_practice	right	0.0	preferred_right	26.0	83.0		34.69118340004934	0.03355659998487681
3	21.85340660001384	stim	14		2	unambiguous_practice	right	0.0	preferred_right	26.0	83.0		34.72474000003422	0.03314750001300126
3	21.886554100026842	stim	15		2	unambiguous_practice	right	0.0	preferred_right	26.0	83.0		34.75788750004722	0.033418499981053174
3	21.919972600007895	stim	16		2	unambiguous_practice	right	0.0	preferred_right	26.0	83.0		34.79130600002827	0.03332099999533966
3	21.953293600003235	stim	17		2	unambiguous_practice	right	0.0	preferred_right	26.0	83.0		34.82462700002361	0.03344109997851774
3	21.986734699981753	stim	18		2	unambiguous_practice	right	0.0	preferred_right	26.0	83.0		34.85806810000213	0.03384300001198426
3	22.020577699993737	stim	19		2	unambiguous_practice	right	0.0	preferred_right	26.0	83.0		34.89191110001411	0.033280500036198646
3	22.053858200029936	stim	20		2	unambiguous_practice	right	0.0	preferred_right	26.0	83.0		34.92519160005031	0.0332971999887377
3	22.087155400018673	stim	21		2	unambiguous_practice	right	0.0	preferred_right	26.0	83.0		34.95848880003905	0.033364899980369955
3	22.120520299999043	stim	22		2	unambiguous_practice	right	0.0	preferred_right	26.0	83.0		34.99185370001942	0.03337030002148822
3	22.15389060002053	stim	23		2	unambiguous_practice	right	0.0	preferred_right	26.0	83.0		35.02522400004091	0.03352239995729178
3	22.187412999977823	stim	24		2	unambiguous_practice	right	0.0	preferred_right	26.0	83.0		35.0587463999982	0.03350960003444925
3	22.220922600012273	stim	25		2	unambiguous_practice	right	0.0	preferred_right	26.0	83.0		35.09225600003265	2.8192146999645047
0	25.040137299976777	stim	0		2	ambiguous_practice	ambiguous_practice	0.0	preferred_right	300.0	0.0		37.91147069999715	0.04783480003243312
0	25.08797210000921	stim	1		2	ambiguous_practice	ambiguous_practice	0.0	preferred_right	300.0	0.0		37.959305500029586	0.03338199999416247
0	25.121354100003373	stim	2		2	ambiguous_practice	ambiguous_practice	0.0	preferred_right	300.0	0.0		37.99268750002375	0.03324140002951026
0	25.154595500032883	stim	3		2	ambiguous_practice	ambiguous_practice	0.0	preferred_right	300.0	0.0		38.02592890005326	0.03347269998630509
0	25.18806820001919	stim	4		2	ambiguous_practice	ambiguous_practice	0.0	preferred_right	300.0	0.0		38.059401600039564	0.03329170000506565
0	25.221359900024254	stim	5		2	ambiguous_practice	ambiguous_practice	0.0	preferred_right	300.0	0.0		38.09269330004463	0.03353650000644848
0	25.254896400030702	stim	6		2	ambiguous_practice	ambiguous_practice	0.0	preferred_right	300.0	0.0		38.12622980005108	0.032905499974731356
0	25.287801900005434	stim	7		2	ambiguous_practice	ambiguous_practice	0.0	preferred_right	300.0	0.0		38.15913530002581	0.03327870002249256
0	25.321080600027926	stim	8		2	ambiguous_practice	ambiguous_practice	0.0	preferred_right	300.0	0.0		38.1924140000483	0.033600299968384206
0	25.35468089999631	stim	9		2	ambiguous_practice	ambiguous_practice	0.0	preferred_right	300.0	0.0		38.226014300016686	0.03338199999416247
0	25.388062899990473	stim	10		2	ambiguous_practice	ambiguous_practice	0.0	preferred_right	300.0	0.0		38.25939630001085	0.033691200020257384
0	25.42175410001073	stim	11		2	ambiguous_practice	ambiguous_practice	0.0	preferred_right	300.0	0.0		38.293087500031106	0.03358180000213906
0	25.45533590001287	stim	12		2	ambiguous_practice	ambiguous_practice	0.0	preferred_right	300.0	0.0		38.326669300033245	0.03308849997119978
0	25.48842439998407	stim	13		2	ambiguous_practice	ambiguous_practice	0.0	preferred_right	300.0	0.0		38.359757800004445	0.03354530001524836
0	25.521969699999318	stim	14		2	ambiguous_practice	ambiguous_practice	0.0	preferred_right	300.0	0.0		38.39330310001969	0.03553039999678731
0	25.557500099996105	stim	15		2	ambiguous_practice	ambiguous_practice	0.0	preferred_right	300.0	0.0		38.42883350001648	0.0337567999958992
0	25.591256899992004	stim	16		2	ambiguous_practice	ambiguous_practice	0.0	preferred_right	300.0	0.0		38.46259030001238	0.033363600028678775
0	25.624620500020683	stim	17		2	ambiguous_practice	ambiguous_practice	0.0	preferred_right	300.0	0.0		38.49595390004106	0.033267099992372096
0	25.657887600013055	stim	18		2	ambiguous_practice	ambiguous_practice	0.0	preferred_right	300.0	0.0		38.52922100003343	0.03328289999626577
0	25.69117050000932	stim	19		2	ambiguous_practice	ambiguous_practice	0.0	preferred_right	300.0	0.0		38.5625039000297	0.033437500009313226
0	25.724608000018634	stim	20		2	ambiguous_practice	ambiguous_practice	0.0	preferred_right	300.0	0.0		38.59594140003901	0.03337129997089505
0	25.75797929998953	stim	21		2	ambiguous_practice	ambiguous_practice	0.0	preferred_right	300.0	0.0		38.629312700009905	0.03259499999694526
0	25.790574299986474	stim	22		2	ambiguous_practice	ambiguous_practice	0.0	preferred_right	300.0	0.0		38.66190770000685	0.03322089998982847
0	25.823795199976303	stim	23		2	ambiguous_practice	ambiguous_practice	0.0	preferred_right	300.0	0.0		38.69512859999668	0.03350610000779852
0	25.8573012999841	stim	24		2	ambiguous_practice	ambiguous_practice	0.0	preferred_right	300.0	0.0		38.72863470000448	0.033857100002933294
0	25.891158399987034	stim	25		2	ambiguous_practice	ambiguous_practice	0.0	preferred_right	300.0	0.0		38.76249180000741	0.03340620000381023
0	25.924564599990845	stim	26		2	ambiguous_practice	ambiguous_practice	0.0	preferred_right	300.0	0.0		38.79589800001122	0.08306949998950586
0	26.00763409998035	stim	27		2	ambiguous_practice	ambiguous_practice	0.0	preferred_right	300.0	0.0		38.878967500000726	0.03305420000106096
0	26.04068829998141	stim	28		2	ambiguous_practice	ambiguous_practice	0.0	preferred_right	300.0	0.0		38.91202170000179	0.033559100003913045
0	26.074247399985325	stim	29		2	ambiguous_practice	ambiguous_practice	0.0	preferred_right	300.0	0.0		38.9455808000057	0.0334281999967061
0	26.10767559998203	stim	30		2	ambiguous_practice	ambiguous_practice	0.0	preferred_right	300.0	0.0		38.97900900000241	0.03325300000142306
0	26.140928599983454	stim	31		2	ambiguous_practice	ambiguous_practice	0.0	preferred_right	300.0	0.0		39.01226200000383	0.03344880003714934
0	26.174377400020603	stim	32		2	ambiguous_practice	ambiguous_practice	0.0	preferred_right	300.0	0.0		39.04571080004098	0.033470899972599
0	26.207848299993202	stim	33		2	ambiguous_practice	ambiguous_practice	0.0	preferred_right	300.0	0.0		39.07918170001358	0.033360500005073845
0	26.241208799998276	stim	34		2	ambiguous_practice	ambiguous_practice	0.0	preferred_right	300.0	0.0		39.11254220001865	0.03292420000070706
0	26.274132999998983	stim	35		2	ambiguous_practice	ambiguous_practice	0.0	preferred_right	300.0	0.0		39.14546640001936	0.03337780002038926
0	26.307510800019372	stim	36		2	ambiguous_practice	ambiguous_practice	0.0	preferred_right	300.0	0.0		39.17884420003975	0.0338501000078395
0	26.34136090002721	stim	37		2	ambiguous_practice	ambiguous_practice	0.0	preferred_right	300.0	0.0		39.21269430004759	0.03348079998977482
0	26.374841700016987	stim	38		2	ambiguous_practice	ambiguous_practice	0.0	preferred_right	300.0	0.0		39.24617510003736	0.03322990000015125
0	26.408071600017138	stim	39		2	ambiguous_practice	ambiguous_practice	0.0	preferred_right	300.0	0.0		39.279405000037514	0.033377000014297664
0	26.441448600031435	stim	40		2	ambiguous_practice	ambiguous_practice	0.0	preferred_right	300.0	0.0		39.31278200005181	0.03322009998373687
0	26.474668700015172	stim	41		2	ambiguous_practice	ambiguous_practice	0.0	preferred_right	300.0	0.0		39.34600210003555	0.033409499970730394
0	26.508078199985903	stim	42		2	ambiguous_practice	ambiguous_practice	0.0	preferred_right	300.0	0.0		39.37941160000628	0.03269449999788776
0	26.54077269998379	stim	43		2	ambiguous_practice	ambiguous_practice	0.0	preferred_right	300.0	0.0		39.412106100004166	0.03357030003098771
0	26.57434300001478	stim	44		2	ambiguous_practice	ambiguous_practice	0.0	preferred_right	300.0	0.0		39.445676400035154	0.034058099961839616
0	26.608401099976618	stim	45		2	ambiguous_practice	ambiguous_practice	0.0	preferred_right	300.0	0.0		39.479734499996994	0.033375300001353025
0	26.64177639997797	stim	46		2	ambiguous_practice	ambiguous_practice	0.0	preferred_right	300.0	0.0		39.51310979999835	0.03317570005310699
0	26.674952100031078	stim	47		2	ambiguous_practice	ambiguous_practice	0.0	preferred_right	300.0	0.0		39.546285500051454	0.0335332999820821
0	26.70848540001316	stim	48		2	ambiguous_practice	ambiguous_practice	0.0	preferred_right	300.0	0.0		39.579818800033536	0.03317309997510165
0	26.74165849998826	stim	49		2	ambiguous_practice	ambiguous_practice	0.0	preferred_right	300.0	0.0		39.61299190000864	0.03352699999231845
0	26.77518549998058	stim	50		2	ambiguous_practice	ambiguous_practice	0.0	preferred_right	300.0	0.0		39.646518900000956	0.03303270001197234
0	26.808218199992552	stim	51		2	ambiguous_practice	ambiguous_practice	0.0	preferred_right	300.0	0.0		39.67955160001293	0.03384600003482774
0	26.84206420002738	stim	52		2	ambiguous_practice	ambiguous_practice	0.0	preferred_right	300.0	0.0		39.713397600047756	0.03335399995557964
0	26.87541819998296	stim	53		2	ambiguous_practice	ambiguous_practice	0.0	preferred_right	300.0	0.0		39.746751600003336	0.033282100048381835
0	26.90870030003134	stim	54		2	ambiguous_practice	ambiguous_practice	0.0	preferred_right	300.0	0.0		39.78003370005172	0.03347489994484931
0	26.94217519997619	stim	55		2	ambiguous_practice	ambiguous_practice	0.0	preferred_right	300.0	0.0		39.81350859999657	0.033239100011996925
0	26.975414299988188	stim	56		2	ambiguous_practice	ambiguous_practice	0.0	preferred_right	300.0	0.0		39.846747700008564	0.03350100002717227
0	27.00891530001536	stim	57		2	ambiguous_practice	ambiguous_practice	0.0	preferred_right	300.0	0.0		39.880248700035736	0.033375300001353025
0	27.042290600016713	stim	58		2	ambiguous_practice	ambiguous_practice	0.0	preferred_right	300.0	0.0		39.91362400003709	0.03353179997066036
0	27.075822399987374	stim	59		2	ambiguous_practice	ambiguous_practice	0.0	preferred_right	300.0	0.0		39.94715580000775	0.0333791000302881
0	27.10920150001766	stim	60		2	ambiguous_practice	ambiguous_practice	0.0	preferred_right	300.0	0.0		39.98053490003804	0.03330969996750355
0	27.142511199985165	stim	61		2	ambiguous_practice	ambiguous_practice	0.0	preferred_right	300.0	0.0		40.01384460000554	0.03321920003509149
0	27.175730400020257	stim	62		2	ambiguous_practice	ambiguous_practice	0.0	preferred_right	300.0	0.0		40.04706380004063	0.03308470000047237
0	27.20881510002073	stim	63		2	ambiguous_practice	ambiguous_practice	0.0	preferred_right	300.0	0.0		40.080148500041105	0.03338089998578653
0	27.242196000006516	stim	64		2	ambiguous_practice	ambiguous_practice	0.0	preferred_right	300.0	0.0		40.11352940002689	0.032911500020418316
0	27.275107500026934	stim	65		2	ambiguous_practice	ambiguous_practice	0.0	preferred_right	300.0	0.0		40.14644090004731	0.0341657999670133
0	27.309273299993947	stim	66		2	ambiguous_practice	ambiguous_practice	0.0	preferred_right	300.0	0.0		40.18060670001432	0.033393100020475686
0	27.342666400014423	stim	67		2	ambiguous_practice	ambiguous_practice	0.0	preferred_right	300.0	0.0		40.2139998000348	0.033372299978509545
0	27.376038699992932	stim	68		2	ambiguous_practice	ambiguous_practice	0.0	preferred_right	300.0	0.0		40.24737210001331	0.033254000009037554
0	27.40929270000197	stim	69		2	ambiguous_practice	ambiguous_practice	0.0	preferred_right	300.0	0.0		40.280626100022346	0.03336719999788329
0	27.442659899999853	stim	70		2	ambiguous_practice	ambiguous_practice	0.0	preferred_right	300.0	0.0		40.31399330002023	0.033295499975793064
0	27.475955399975646	stim	71		2	ambiguous_practice	ambiguous_practice	0.0	preferred_right	300.0	0.0		40.34728879999602	0.03342680004425347
0	27.5093822000199	stim	72		2	ambiguous_practice	ambiguous_practice	0.0	preferred_right	300.0	0.0		40.380715600040276	0.03332669998053461
0	27.542708900000434	stim	73		2	ambiguous_practice	ambiguous_practice	0.0	preferred_right	300.0	0.0		40.41404230002081	0.03328109998255968
0	27.575989999982994	stim	74		2	ambiguous_practice	ambiguous_practice	0.0	preferred_right	300.0	0.0		40.44732340000337	0.03334359999280423
0	27.6093335999758	stim	75		2	ambiguous_practice	ambiguous_practice	0.0	preferred_right	300.0	0.0		40.480666999996174	0.03328090003924444
0	27.642614500015043	stim	76		2	ambiguous_practice	ambiguous_practice	0.0	preferred_right	300.0	0.0		40.51394790003542	0.0334030999802053
0	27.676017599995248	stim	77		2	ambiguous_practice	ambiguous_practice	0.0	preferred_right	300.0	0.0		40.547351000015624	0.033244999998714775
0	27.709262599993963	stim	78		2	ambiguous_practice	ambiguous_practice	0.0	preferred_right	300.0	0.0		40.58059600001434	0.033519099990371615
0	27.742781699984334	stim	79		2	ambiguous_practice	ambiguous_practice	0.0	preferred_right	300.0	0.0		40.61411510000471	0.033522000012453645
0	27.776303699996788	stim	80		2	ambiguous_practice	ambiguous_practice	0.0	preferred_right	300.0	0.0		40.647637100017164	0.03324319998500869
0	27.809546899981797	stim	81		2	ambiguous_practice	ambiguous_practice	0.0	preferred_right	300.0	0.0		40.68088030000217	0.03325130004668608
0	27.842798200028483	stim	82		2	ambiguous_practice	ambiguous_practice	0.0	preferred_right	300.0	0.0		40.71413160004886	0.03363639995222911
0	27.876434599980712	stim	83		2	ambiguous_practice	ambiguous_practice	0.0	preferred_right	300.0	0.0		40.74776800000109	0.033862700045574456
0	27.910297300026286	stim	84		2	ambiguous_practice	ambiguous_practice	0.0	preferred_right	300.0	0.0		40.78163070004666	0.03313559998059645
0	27.943432900006883	stim	85		2	ambiguous_practice	ambiguous_practice	0.0	preferred_right	300.0	0.0		40.81476630002726	0.03305460000410676
0	27.97648750001099	stim	86		2	ambiguous_practice	ambiguous_practice	0.0	preferred_right	300.0	0.0		40.847820900031365	0.03369919996475801
0	28.010186699975748	stim	87		2	ambiguous_practice	ambiguous_practice	0.0	preferred_right	300.0	0.0		40.88152009999612	0.033840600051917136
0	28.044027300027665	stim	88		2	ambiguous_practice	ambiguous_practice	0.0	preferred_right	300.0	0.0		40.91536070004804	0.03342469997005537
0	28.07745199999772	stim	89		2	ambiguous_practice	ambiguous_practice	0.0	preferred_right	300.0	0.0		40.948785400018096	0.03320419997908175
0	28.110656199976802	stim	90		2	ambiguous_practice	ambiguous_practice	0.0	preferred_right	300.0	0.0		40.98198959999718	0.03311710001435131
0	28.143773299991153	stim	91		2	ambiguous_practice	ambiguous_practice	0.0	preferred_right	300.0	0.0		41.01510670001153	0.03354400000534952
0	28.177317299996503	stim	92		2	ambiguous_practice	ambiguous_practice	0.0	preferred_right	300.0	0.0		41.04865070001688	0.03333760000532493
0	28.210654900001828	stim	93		2	ambiguous_practice	ambiguous_practice	0.0	preferred_right	300.0	0.0		41.0819883000222	0.03318550001131371
0	28.24384040001314	stim	94		2	ambiguous_practice	ambiguous_practice	0.0	preferred_right	300.0	0.0		41.11517380003352	0.0339364999672398
0	28.27777689998038	stim	95		2	ambiguous_practice	ambiguous_practice	0.0	preferred_right	300.0	0.0		41.14911030000076	0.032932300004176795
0	28.310709199984558	stim	96		2	ambiguous_practice	ambiguous_practice	0.0	preferred_right	300.0	0.0		41.182042600004934	0.03342970000812784
0	28.344138899992686	stim	97		2	ambiguous_practice	ambiguous_practice	0.0	preferred_right	300.0	0.0		41.21547230001306	0.033114699996076524
0	28.377253599988762	stim	98		2	ambiguous_practice	ambiguous_practice	0.0	preferred_right	300.0	0.0		41.24858700000914	0.033587200043257326
0	28.41084080003202	stim	99		2	ambiguous_practice	ambiguous_practice	0.0	preferred_right	300.0	0.0		41.282174200052395	0.033367899945005774
0	28.444208699977025	stim	100		2	ambiguous_practice	ambiguous_practice	0.0	preferred_right	300.0	0.0		41.3155420999974	0.033371100027579814
0	28.477579800004605	stim	101		2	ambiguous_practice	ambiguous_practice	0.0	preferred_right	300.0	0.0		41.34891320002498	0.03325879998737946
0	28.510838599991985	stim	102		2	ambiguous_practice	ambiguous_practice	0.0	preferred_right	300.0	0.0		41.38217200001236	0.03342649998376146
0	28.544265099975746	stim	103		2	ambiguous_practice	ambiguous_practice	0.0	preferred_right	300.0	0.0		41.41559849999612	0.03331300005083904
0	28.577578100026585	stim	104		2	ambiguous_practice	ambiguous_practice	0.0	preferred_right	300.0	0.0		41.44891150004696	0.03343099995981902
0	28.611009099986404	stim	105		2	ambiguous_practice	ambiguous_practice	0.0	preferred_right	300.0	0.0		41.48234250000678	0.03335830004652962
0	28.644367400032934	stim	106		2	ambiguous_practice	ambiguous_practice	0.0	preferred_right	300.0	0.0		41.51570080005331	0.0334710999741219
0	28.677838500007056	stim	107		2	ambiguous_practice	ambiguous_practice	0.0	preferred_right	300.0	0.0		41.54917190002743	0.03343219996895641
0	28.711270699976012	stim	108		2	ambiguous_practice	ambiguous_practice	0.0	preferred_right	300.0	0.0		41.58260409999639	0.03316680004354566
0	28.744437500019558	stim	109		2	ambiguous_practice	ambiguous_practice	0.0	preferred_right	300.0	0.0		41.615770900039934	0.0333595999982208
0	28.77779710001778	stim	110		2	ambiguous_practice	ambiguous_practice	0.0	preferred_right	300.0	0.0		41.649130500038154	0.03387539996765554
0	28.811672499985434	stim	111		2	ambiguous_practice	ambiguous_practice	0.0	preferred_right	300.0	0.0		41.68300590000581	0.03334960003849119
0	28.845022100023925	stim	112		2	ambiguous_practice	ambiguous_practice	0.0	preferred_right	300.0	0.0		41.7163555000443	0.03332609997596592
0	28.87834819999989	stim	113		2	ambiguous_practice	ambiguous_practice	0.0	preferred_right	300.0	0.0		41.74968160002027	0.03339210001286119
0	28.911740300012752	stim	114		2	ambiguous_practice	ambiguous_practice	0.0	preferred_right	300.0	0.0		41.78307370003313	0.03377129998989403
0	28.945511600002646	stim	115		2	ambiguous_practice	ambiguous_practice	0.0	preferred_right	300.0	0.0		41.81684500002302	0.03324989997781813
0	28.978761499980465	stim	116		2	ambiguous_practice	ambiguous_practice	0.0	preferred_right	300.0	0.0		41.85009490000084	0.03314470004988834
0	29.011906200030353	stim	117		2	ambiguous_practice	ambiguous_practice	0.0	preferred_right	300.0	0.0		41.88323960005073	0.03397729998687282
0	29.045883500017226	stim	118		2	ambiguous_practice	ambiguous_practice	0.0	preferred_right	300.0	0.0		41.9172169000376	0.033409299969207495
0	29.079292799986433	stim	119		2	ambiguous_practice	ambiguous_practice	0.0	preferred_right	300.0	0.0		41.95062620000681	0.03331220004474744
0	29.11260500003118	stim	120		2	ambiguous_practice	ambiguous_practice	0.0	preferred_right	300.0	0.0		41.98393840005156	0.03341709997039288
0	29.146022100001574	stim	121		2	ambiguous_practice	ambiguous_practice	0.0	preferred_right	300.0	0.0		42.01735550002195	0.03309570002602413
0	29.179117800027598	stim	122		2	ambiguous_practice	ambiguous_practice	0.0	preferred_right	300.0	0.0		42.05045120004797	0.033652299956884235
0	29.212770099984482	stim	123		2	ambiguous_practice	ambiguous_practice	0.0	preferred_right	300.0	0.0		42.08410350000486	0.0327277000178583
0	29.24549780000234	stim	124		2	ambiguous_practice	ambiguous_practice	0.0	preferred_right	300.0	0.0		42.116831200022716	0.033526399987749755
0	29.27902419999009	stim	125		2	ambiguous_practice	ambiguous_practice	0.0	preferred_right	300.0	0.0		42.150357600010466	0.03342500003054738
0	29.312449200020637	stim	126		2	ambiguous_practice	ambiguous_practice	0.0	preferred_right	300.0	0.0		42.18378260004101	0.0336265999940224
0	29.34607580001466	stim	127		2	ambiguous_practice	ambiguous_practice	0.0	preferred_right	300.0	0.0		42.217409200035036	0.033015199995134026
0	29.379091000009794	stim	128		2	ambiguous_practice	ambiguous_practice	0.0	preferred_right	300.0	0.0		42.25042440003017	0.03331369999796152
0	29.412404700007755	stim	129		2	ambiguous_practice	ambiguous_practice	0.0	preferred_right	300.0	0.0		42.28373810002813	0.033443499996792525
0	29.445848200004548	stim	130		2	ambiguous_practice	ambiguous_practice	0.0	preferred_right	300.0	0.0		42.317181600024924	0.033447899972088635
0	29.479296099976636	stim	131		2	ambiguous_practice	ambiguous_practice	0.0	preferred_right	300.0	0.0		42.35062949999701	0.03330660000210628
0	29.512602699978743	stim	132		2	ambiguous_practice	ambiguous_practice	0.0	preferred_right	300.0	0.0		42.38393609999912	0.03334930003620684
0	29.54595200001495	stim	133		2	ambiguous_practice	ambiguous_practice	0.0	preferred_right	300.0	0.0		42.417285400035325	0.033366399991791695
0	29.57931840000674	stim	134		2	ambiguous_practice	ambiguous_practice	0.0	preferred_right	300.0	0.0		42.45065180002712	0.03334550000727177
0	29.612663900014013	stim	135		2	ambiguous_practice	ambiguous_practice	0.0	preferred_right	300.0	0.0		42.48399730003439	0.033323600015137345
0	29.64598750002915	stim	136		2	ambiguous_practice	ambiguous_practice	0.0	preferred_right	300.0	0.0		42.517320900049526	0.0334593000006862
0	29.679446800029837	stim	137		2	ambiguous_practice	ambiguous_practice	0.0	preferred_right	300.0	0.0		42.55078020005021	0.03339089994551614
0	29.712837699975353	stim	138		2	ambiguous_practice	ambiguous_practice	0.0	preferred_right	300.0	0.0		42.58417109999573	0.03348710003774613
