trial_nr	onset	event_type	phase	response	nr_frames	block_type	trial_type	block_ID	response_hand	phase_length	last_frame	reaction_time	key_duration	offset_delay	onset_delay_timing	offset_delay_timing	button_response	onset_abs	duration
0	1.1608100000303239	stim	0		0	break	break	0.0	preferred_right	1.0	0.0							10.780839300015941	-2.3376678000204265
0	-1.1768577999901026	break	0	space	0	break	break	0.0	preferred_right	1.0	0.0		0.09581440000329167					8.443171499995515	2.32795919990167
0	1.1511013999115676	break	0	t	599	break	break	0.0	preferred_right	1.0	0.0		0.09601830004248768					10.771130699897185	10.048477600095794
11	11.199579000007361	stim	0		4	ambiguous	ambiguous	1.0	preferred_right	600.0	30.0							20.81960829999298	0.06681480002589524
11	11.266393800033256	stim	1		4	ambiguous	ambiguous	1.0	preferred_right	600.0	30.0							20.886423100018874	0.0670232999837026
11	11.333417100016959	stim	2		4	ambiguous	ambiguous	1.0	preferred_right	600.0	30.0							20.953446400002576	0.06650119996629655
11	11.399918299983256	stim	3		4	ambiguous	ambiguous	1.0	preferred_right	600.0	30.0							21.019947599968873	0.06700189993716776
11	11.466920199920423	stim	4		4	ambiguous	ambiguous	1.0	preferred_right	600.0	30.0							21.08694949990604	0.06756730005145073
11	11.534487499971874	stim	5		4	ambiguous	ambiguous	1.0	preferred_right	600.0	30.0							21.15451679995749	0.06704390002414584
11	11.60153139999602	stim	6		4	ambiguous	ambiguous	1.0	preferred_right	600.0	30.0							21.221560699981637	0.06723980000242591
11	11.668771199998446	stim	7		4	ambiguous	ambiguous	1.0	preferred_right	600.0	30.0							21.288800499984063	0.08286099997349083
11	11.751632199971937	stim	8		4	ambiguous	ambiguous	1.0	preferred_right	600.0	30.0							21.371661499957554	0.06714629998896271
11	11.8187784999609	stim	9		4	ambiguous	ambiguous	1.0	preferred_right	600.0	30.0							21.438807799946517	0.06692560005467385
11	11.885704100015573	stim	10		4	ambiguous	ambiguous	1.0	preferred_right	600.0	30.0							21.50573340000119	0.066431799903512
11	11.952135899919085	stim	11		4	ambiguous	ambiguous	1.0	preferred_right	600.0	30.0							21.572165199904703	0.06706440006382763
11	12.019200299982913	stim	12		4	ambiguous	ambiguous	1.0	preferred_right	600.0	30.0							21.63922959996853	0.06668549997266382
11	12.085885799955577	stim	13		4	ambiguous	ambiguous	1.0	preferred_right	600.0	30.0							21.705915099941194	0.06664990005083382
11	12.15253570000641	stim	14		4	ambiguous	ambiguous	1.0	preferred_right	600.0	30.0							21.772564999992028	0.06703259993810207
11	12.219568299944513	stim	15		4	ambiguous	ambiguous	1.0	preferred_right	600.0	30.0							21.83959759993013	0.06685850000940263
11	12.286426799953915	stim	16		4	ambiguous	ambiguous	1.0	preferred_right	600.0	30.0							21.906456099939533	0.0671792000066489
11	12.353605999960564	stim	17		4	ambiguous	ambiguous	1.0	preferred_right	600.0	30.0							21.97363529994618	0.06685850000940263
11	12.420464499969967	stim	18		4	ambiguous	ambiguous	1.0	preferred_right	600.0	30.0							22.040493799955584	0.06715799996163696
11	12.487622499931604	stim	19		4	ambiguous	ambiguous	1.0	preferred_right	600.0	30.0							22.10765179991722	0.06627790001221001
11	12.553900399943814	stim	20		4	ambiguous	ambiguous	1.0	preferred_right	600.0	30.0							22.17392969992943	0.06669420003890991
11	12.620594599982724	stim	21		4	ambiguous	ambiguous	1.0	preferred_right	600.0	30.0							22.24062389996834	0.06667029997333884
11	12.687264899956062	stim	22		4	ambiguous	ambiguous	1.0	preferred_right	600.0	30.0							22.30729419994168	0.06700629997067153
11	12.754271199926734	stim	23		4	ambiguous	ambiguous	1.0	preferred_right	600.0	30.0							22.37430049991235	0.06709410005714744
11	12.821365299983881	stim	24		4	ambiguous	ambiguous	1.0	preferred_right	600.0	30.0							22.4413945999695	0.067494299961254
11	12.888859599945135	stim	25		4	ambiguous	ambiguous	1.0	preferred_right	600.0	30.0							22.508888899930753	0.06650010007433593
11	12.955359700019471	stim	26		4	ambiguous	ambiguous	1.0	preferred_right	600.0	30.0							22.57538900000509	0.06647299998439848
11	13.02183270000387	stim	27		4	ambiguous	ambiguous	1.0	preferred_right	600.0	30.0							22.641861999989487	0.06719919992610812
11	13.089031899929978	stim	28		4	ambiguous	ambiguous	1.0	preferred_right	600.0	30.0							22.709061199915595	0.06630430009681731
11	13.155336200026795	stim	29		4	ambiguous	ambiguous	1.0	preferred_right	600.0	30.0							22.775365500012413	0.066899299970828
11	13.222235499997623	stim	30		4	ambiguous	ambiguous	1.0	preferred_right	600.0	30.0							22.84226479998324	0.06738409993704408
11	13.289619599934667	stim	31		4	ambiguous	ambiguous	1.0	preferred_right	600.0	30.0							22.909648899920285	0.08373960002791137
11	13.373359199962579	stim	32		4	ambiguous	ambiguous	1.0	preferred_right	600.0	30.0							22.993388499948196	0.067094000056386
11	13.440453200018965	stim	33		4	ambiguous	ambiguous	1.0	preferred_right	600.0	30.0							23.060482500004582	0.06707180000375956
11	13.507525000022724	stim	34		4	ambiguous	ambiguous	1.0	preferred_right	600.0	30.0							23.12755430000834	0.0663333999691531
11	13.573858399991877	stim	35		4	ambiguous	ambiguous	1.0	preferred_right	600.0	30.0							23.193887699977495	0.06698330002836883
11	13.640841700020246	stim	36		4	ambiguous	ambiguous	1.0	preferred_right	600.0	30.0							23.260871000005864	0.06721849995665252
11	13.708060199976899	stim	37		4	ambiguous	ambiguous	1.0	preferred_right	600.0	30.0							23.328089499962516	0.066762899979949
11	13.774823099956848	stim	38		4	ambiguous	ambiguous	1.0	preferred_right	600.0	30.0							23.394852399942465	0.06734619999770075
11	13.842169299954548	stim	39		4	ambiguous	ambiguous	1.0	preferred_right	600.0	30.0							23.462198599940166	0.06686660007108003
11	13.909035900025629	stim	40		4	ambiguous	ambiguous	1.0	preferred_right	600.0	30.0							23.529065200011246	0.06671569996979088
11	13.97575159999542	stim	41		4	ambiguous	ambiguous	1.0	preferred_right	600.0	30.0							23.595780899981037	0.06659900001250207
11	14.042350600007921	stim	42		4	ambiguous	ambiguous	1.0	preferred_right	600.0	30.0							23.66237989999354	0.06682099995668977
11	14.109171599964611	stim	43		4	ambiguous	ambiguous	1.0	preferred_right	600.0	30.0							23.72920089995023	0.0668629000429064
11	14.176034500007518	stim	44		4	ambiguous	ambiguous	1.0	preferred_right	600.0	30.0							23.796063799993135	0.06707909994293004
11	14.243113599950448	stim	45		4	ambiguous	ambiguous	1.0	preferred_right	600.0	30.0							23.863142899936065	0.0665525000076741
11	14.309666099958122	stim	46		4	ambiguous	ambiguous	1.0	preferred_right	600.0	30.0							23.92969539994374	0.06668260006699711
11	14.376348700025119	stim	47		4	ambiguous	ambiguous	1.0	preferred_right	600.0	30.0							23.996378000010736	0.06678929994814098
11	14.44313799997326	stim	48		4	ambiguous	ambiguous	1.0	preferred_right	600.0	30.0							24.063167299958877	0.0669307999778539
11	14.510068799951114	stim	49		4	ambiguous	ambiguous	1.0	preferred_right	600.0	30.0							24.13009809993673	0.06683020002674311
11	14.576898999977857	stim	50		4	ambiguous	ambiguous	1.0	preferred_right	600.0	30.0							24.196928299963474	0.067228400032036
11	14.644127400009893	stim	51		4	ambiguous	ambiguous	1.0	preferred_right	600.0	30.0							24.26415669999551	0.06659760000184178
11	14.710725000011735	stim	52		4	ambiguous	ambiguous	1.0	preferred_right	600.0	30.0							24.330754299997352	0.06672459992114455
11	14.77744959993288	stim	53		4	ambiguous	ambiguous	1.0	preferred_right	600.0	30.0							24.397478899918497	0.06667490000836551
11	14.844124499941245	stim	54		4	ambiguous	ambiguous	1.0	preferred_right	600.0	30.0							24.464153799926862	0.06702760001644492
11	14.91115209995769	stim	55		4	ambiguous	ambiguous	1.0	preferred_right	600.0	30.0							24.531181399943307	0.06693299999460578
11	14.978085099952295	stim	56		4	ambiguous	ambiguous	1.0	preferred_right	600.0	30.0							24.598114399937913	0.06690249999519438
11	15.04498759994749	stim	57		4	ambiguous	ambiguous	1.0	preferred_right	600.0	30.0							24.665016899933107	0.06680720008444041
11	15.11179480003193	stim	58		4	ambiguous	ambiguous	1.0	preferred_right	600.0	30.0							24.731824100017548	0.0699508999241516
11	15.181745699956082	stim	59		4	ambiguous	ambiguous	1.0	preferred_right	600.0	30.0							24.8017749999417	0.06622410006821156
11	15.247969800024293	stim	60		4	ambiguous	ambiguous	1.0	preferred_right	600.0	30.0							24.86799910000991	0.06667899992316961
11	15.314648799947463	stim	61		4	ambiguous	ambiguous	1.0	preferred_right	600.0	30.0							24.93467809993308	0.0666348000522703
11	15.381283599999733	stim	62		4	ambiguous	ambiguous	1.0	preferred_right	600.0	30.0							25.00131289998535	0.06675460003316402
11	15.448038200032897	stim	63		4	ambiguous	ambiguous	1.0	preferred_right	600.0	30.0							25.068067500018515	0.06677809997927397
11	15.514816300012171	stim	64		4	ambiguous	ambiguous	1.0	preferred_right	600.0	30.0							25.13484559999779	0.06648549996316433
11	15.581301799975336	stim	65		4	ambiguous	ambiguous	1.0	preferred_right	600.0	30.0							25.201331099960953	0.06712460005655885
11	15.648426400031894	stim	66		4	ambiguous	ambiguous	1.0	preferred_right	600.0	30.0							25.268455700017512	0.06644609989598393
11	15.714872499927878	stim	67		4	ambiguous	ambiguous	1.0	preferred_right	600.0	30.0							25.334901799913496	0.06647560000419617
11	15.781348099932075	stim	68		4	ambiguous	ambiguous	1.0	preferred_right	600.0	30.0							25.401377399917692	0.06700859998818487
11	15.84835669992026	stim	69		4	ambiguous	ambiguous	1.0	preferred_right	600.0	30.0							25.468385999905877	0.06711350008845329
11	15.915470200008713	stim	70		4	ambiguous	ambiguous	1.0	preferred_right	600.0	30.0							25.53549949999433	0.06660269992426038
11	15.982072899932973	stim	71		4	ambiguous	ambiguous	1.0	preferred_right	600.0	30.0							25.60210219991859	0.06667379999998957
11	16.048746699932963	stim	72		4	ambiguous	ambiguous	1.0	preferred_right	600.0	30.0							25.66877599991858	0.06679429998621345
11	16.115540999919176	stim	73		4	ambiguous	ambiguous	1.0	preferred_right	600.0	30.0							25.735570299904794	0.06678500003181398
11	16.18232599995099	stim	74		4	ambiguous	ambiguous	1.0	preferred_right	600.0	30.0							25.802355299936607	0.06671929999720305
11	16.249045299948193	stim	75		4	ambiguous	ambiguous	1.0	preferred_right	600.0	30.0							25.86907459993381	0.06722359999548644
11	16.31626889994368	stim	76		4	ambiguous	ambiguous	1.0	preferred_right	600.0	30.0							25.936298199929297	0.0664850000757724
11	16.382753900019452	stim	77		4	ambiguous	ambiguous	1.0	preferred_right	600.0	30.0							26.00278320000507	0.06683209992479533
11	16.449585999944247	stim	78		4	ambiguous	ambiguous	1.0	preferred_right	600.0	30.0							26.069615299929865	0.066751700011082
11	16.51633769995533	stim	79		4	ambiguous	ambiguous	1.0	preferred_right	600.0	30.0							26.136366999940947	0.06681800005026162
11	16.58315570000559	stim	80		4	ambiguous	ambiguous	1.0	preferred_right	600.0	30.0							26.20318499999121	0.06668429996352643
11	16.649839999969117	stim	81		4	ambiguous	ambiguous	1.0	preferred_right	600.0	30.0							26.269869299954735	0.06735410005785525
11	16.717194100026973	stim	82		4	ambiguous	ambiguous	1.0	preferred_right	600.0	30.0							26.33722340001259	0.06719949992839247
11	16.784393599955365	stim	83		4	ambiguous	ambiguous	1.0	preferred_right	600.0	30.0							26.404422899940982	0.0666765000205487
11	16.851070099975914	stim	84		4	ambiguous	ambiguous	1.0	preferred_right	600.0	30.0							26.47109939996153	0.06729379994794726
11	16.91836389992386	stim	85		4	ambiguous	ambiguous	1.0	preferred_right	600.0	30.0							26.53839319990948	0.06646680005360395
11	16.984830699977465	stim	86		4	ambiguous	ambiguous	1.0	preferred_right	600.0	30.0							26.604859999963082	0.06665379996411502
11	17.05148449994158	stim	87		4	ambiguous	ambiguous	1.0	preferred_right	600.0	30.0							26.671513799927197	0.06666230002883822
11	17.118146799970418	stim	88		4	ambiguous	ambiguous	1.0	preferred_right	600.0	30.0							26.738176099956036	0.0667074000230059
11	17.184854199993424	stim	89		4	ambiguous	ambiguous	1.0	preferred_right	600.0	30.0							26.80488349997904	0.06706569995731115
11	17.251919899950735	stim	90		4	ambiguous	ambiguous	1.0	preferred_right	600.0	30.0							26.871949199936353	0.06686600006651133
11	17.318785900017247	stim	91		4	ambiguous	ambiguous	1.0	preferred_right	600.0	30.0							26.938815200002864	0.06662910000886768
11	17.385415000026114	stim	92		4	ambiguous	ambiguous	1.0	preferred_right	600.0	30.0							27.00544430001173	0.06707729992922395
11	17.45249229995534	stim	93		4	ambiguous	ambiguous	1.0	preferred_right	600.0	30.0							27.072521599940956	0.06709050002973527
11	17.519582799985074	stim	94		4	ambiguous	ambiguous	1.0	preferred_right	600.0	30.0							27.13961209997069	0.06667369999922812
11	17.5862564999843	stim	95		4	ambiguous	ambiguous	1.0	preferred_right	600.0	30.0							27.20628579996992	0.0669381000334397
11	17.65319460001774	stim	96		4	ambiguous	ambiguous	1.0	preferred_right	600.0	30.0							27.27322390000336	0.06668980000540614
11	17.719884400023147	stim	97		4	ambiguous	ambiguous	1.0	preferred_right	600.0	30.0							27.339913700008765	0.06667659990489483
11	17.786560999928042	stim	98		4	ambiguous	ambiguous	1.0	preferred_right	600.0	30.0							27.40659029991366	0.06664990005083382
11	17.853210899978876	stim	99		4	ambiguous	ambiguous	1.0	preferred_right	600.0	30.0							27.473240199964494	0.06700389995239675
11	17.920214799931273	stim	100		4	ambiguous	ambiguous	1.0	preferred_right	600.0	30.0							27.54024409991689	0.06650640000589192
11	17.986721199937165	stim	101		4	ambiguous	ambiguous	1.0	preferred_right	600.0	30.0							27.606750499922782	0.06666190002579242
11	18.053383099962957	stim	102		4	ambiguous	ambiguous	1.0	preferred_right	600.0	30.0							27.673412399948575	0.06680709996726364
11	18.12019019993022	stim	103		4	ambiguous	ambiguous	1.0	preferred_right	600.0	30.0							27.74021949991584	0.06739980005659163
11	18.187589999986812	stim	104		4	ambiguous	ambiguous	1.0	preferred_right	600.0	30.0							27.80761929997243	0.06623080000281334
11	18.253820799989626	stim	105		4	ambiguous	ambiguous	1.0	preferred_right	600.0	30.0							27.873850099975243	0.06665669998619705
11	18.320477499975823	stim	106		4	ambiguous	ambiguous	1.0	preferred_right	600.0	30.0							27.94050679996144	0.0666874999878928
11	18.387164999963716	stim	107		4	ambiguous	ambiguous	1.0	preferred_right	600.0	30.0							28.007194299949333	0.06666560005396605
11	18.45383060001768	stim	108		4	ambiguous	ambiguous	1.0	preferred_right	600.0	30.0							28.0738599000033	0.06674889998976141
11	18.520579500007443	stim	109		4	ambiguous	ambiguous	1.0	preferred_right	600.0	30.0							28.14060879999306	0.06674859998747706
11	18.58732809999492	stim	110		4	ambiguous	ambiguous	1.0	preferred_right	600.0	30.0							28.207357399980538	0.06664309999905527
11	18.653971199993975	stim	111		4	ambiguous	ambiguous	1.0	preferred_right	600.0	30.0							28.274000499979593	0.06707520002964884
11	18.721046400023624	stim	112		4	ambiguous	ambiguous	1.0	preferred_right	600.0	30.0							28.34107570000924	0.06703949999064207
11	18.788085900014266	stim	113		4	ambiguous	ambiguous	1.0	preferred_right	600.0	30.0							28.408115199999884	0.066693399916403
11	18.85477929993067	stim	114		4	ambiguous	ambiguous	1.0	preferred_right	600.0	30.0							28.474808599916287	0.066821200074628
11	18.921600500005297	stim	115		4	ambiguous	ambiguous	1.0	preferred_right	600.0	30.0							28.541629799990915	0.06694379996042699
11	18.988544299965724	stim	116		4	ambiguous	ambiguous	1.0	preferred_right	600.0	30.0							28.60857359995134	0.06661980005446821
11	19.055164100020193	stim	117		4	ambiguous	ambiguous	1.0	preferred_right	600.0	30.0							28.67519340000581	0.06668009993154556
11	19.121844199951738	stim	118		4	ambiguous	ambiguous	1.0	preferred_right	600.0	30.0							28.741873499937356	0.06715860008262098
11	19.18900280003436	stim	119		4	ambiguous	ambiguous	1.0	preferred_right	600.0	30.0							28.809032100019976	0.06667009997181594
11	19.255672900006175	stim	120		4	ambiguous	ambiguous	1.0	preferred_right	600.0	30.0							28.875702199991792	0.06663040001876652
11	19.32230330002494	stim	121		4	ambiguous	ambiguous	1.0	preferred_right	600.0	30.0							28.94233260001056	0.06719440000597388
11	19.389497700030915	stim	122		4	ambiguous	ambiguous	1.0	preferred_right	600.0	30.0							29.009527000016533	0.06673779990524054
11	19.456235499936156	stim	123		4	ambiguous	ambiguous	1.0	preferred_right	600.0	30.0							29.076264799921773	0.06660380004905164
11	19.522839299985208	stim	124		4	ambiguous	ambiguous	1.0	preferred_right	600.0	30.0							29.142868599970825	0.06763970002066344
11	19.59047900000587	stim	125		4	ambiguous	ambiguous	1.0	preferred_right	600.0	30.0							29.21050829999149	0.06668639997951686
11	19.657165399985388	stim	126		4	ambiguous	ambiguous	1.0	preferred_right	600.0	30.0							29.277194699971005	0.06666559993755072
11	19.72383099992294	stim	127		4	ambiguous	ambiguous	1.0	preferred_right	600.0	30.0							29.343860299908556	0.06693720002658665
11	19.790768199949525	stim	128		4	ambiguous	ambiguous	1.0	preferred_right	600.0	30.0							29.410797499935143	0.06678800005465746
11	19.857556200004183	stim	129		4	ambiguous	ambiguous	1.0	preferred_right	600.0	30.0							29.4775854999898	0.0668785999296233
11	19.924434799933806	stim	130		4	ambiguous	ambiguous	1.0	preferred_right	600.0	30.0							29.544464099919423	0.06725250009912997
11	19.991687300032936	stim	131		4	ambiguous	ambiguous	1.0	preferred_right	600.0	30.0							29.611716600018553	0.06711969990283251
11	20.05880699993577	stim	132		4	ambiguous	ambiguous	1.0	preferred_right	600.0	30.0							29.678836299921386	0.06700090004596859
11	20.125807899981737	stim	133		4	ambiguous	ambiguous	1.0	preferred_right	600.0	30.0							29.745837199967355	0.06720399996265769
11	20.193011899944395	stim	134		4	ambiguous	ambiguous	1.0	preferred_right	600.0	30.0							29.813041199930012	0.06665260007139295
11	20.259664500015788	stim	135		4	ambiguous	ambiguous	1.0	preferred_right	600.0	30.0							29.879693800001405	0.06666599994059652
11	20.326330499956384	stim	136		4	ambiguous	ambiguous	1.0	preferred_right	600.0	30.0							29.946359799942	0.06706390006002039
11	20.393394400016405	stim	137		4	ambiguous	ambiguous	1.0	preferred_right	600.0	30.0							30.013423700002022	0.0668870999943465
11	20.46028150001075	stim	138		4	ambiguous	ambiguous	1.0	preferred_right	600.0	30.0							30.08031079999637	0.06770229991525412
11	20.527983799926005	stim	139		4	ambiguous	ambiguous	1.0	preferred_right	600.0	30.0							30.148013099911623	0.06606690003536642
11	20.59405069996137	stim	140		4	ambiguous	ambiguous	1.0	preferred_right	600.0	30.0							30.21407999994699	0.06687970005441457
11	20.660930400015786	stim	141		4	ambiguous	ambiguous	1.0	preferred_right	600.0	30.0							30.280959700001404	0.0667854999192059
11	20.727715899934992	stim	142		4	ambiguous	ambiguous	1.0	preferred_right	600.0	30.0							30.34774519992061	0.06700670009013265
11	20.794722600025125	stim	143		4	ambiguous	ambiguous	1.0	preferred_right	600.0	30.0							30.414751900010742	0.06667119998019189
11	20.861393800005317	stim	144		4	ambiguous	ambiguous	1.0	preferred_right	600.0	30.0							30.481423099990934	0.06661159999202937
11	20.928005399997346	stim	145		4	ambiguous	ambiguous	1.0	preferred_right	600.0	30.0							30.548034699982964	0.06694419996347278
11	20.99494959996082	stim	146		4	ambiguous	ambiguous	1.0	preferred_right	600.0	30.0							30.614978899946436	0.08331959997303784
11	21.078269199933857	stim	147		4	ambiguous	ambiguous	1.0	preferred_right	600.0	30.0							30.698298499919474	0.06668590009212494
11	21.14495510002598	stim	148		4	ambiguous	ambiguous	1.0	preferred_right	600.0	30.0							30.7649844000116	0.06671819998882711
11	21.21167330001481	stim	149		4	ambiguous	ambiguous	1.0	preferred_right	600.0	30.0							30.831702600000426	0.06688930001109838
11	21.278562600025907	stim	150		4	ambiguous	ambiguous	1.0	preferred_right	600.0	30.0							30.898591900011525	0.069176199962385
11	21.347738799988292	stim	151		4	ambiguous	ambiguous	1.0	preferred_right	600.0	30.0							30.96776809997391	0.06684610003139824
11	21.41458490001969	stim	152		4	ambiguous	ambiguous	1.0	preferred_right	600.0	30.0							31.034614200005308	0.06654839997645468
11	21.481133299996145	stim	153		4	ambiguous	ambiguous	1.0	preferred_right	600.0	30.0							31.101162599981762	0.06664849992375821
11	21.547781799919903	stim	154		4	ambiguous	ambiguous	1.0	preferred_right	600.0	30.0							31.16781109990552	0.0669324001064524
11	21.614714200026356	stim	155		4	ambiguous	ambiguous	1.0	preferred_right	600.0	30.0							31.234743500011973	0.06814279989339411
11	21.68285699991975	stim	156		4	ambiguous	ambiguous	1.0	preferred_right	600.0	30.0							31.302886299905367	0.0660998000530526
11	21.748956799972802	stim	157		4	ambiguous	ambiguous	1.0	preferred_right	600.0	30.0							31.36898609995842	0.06569289998151362
11	21.814649699954316	stim	158		4	ambiguous	ambiguous	1.0	preferred_right	600.0	30.0							31.434678999939933	0.06658189999870956
11	21.881231599953026	stim	159		4	ambiguous	ambiguous	1.0	preferred_right	600.0	30.0							31.501260899938643	0.06686720007564873
11	21.948098800028674	stim	160		4	ambiguous	ambiguous	1.0	preferred_right	600.0	30.0							31.56812810001429	0.06710449990350753
11	22.015203299932182	stim	161		4	ambiguous	ambiguous	1.0	preferred_right	600.0	30.0							31.6352325999178	0.06636679999064654
11	22.08157009992283	stim	162		4	ambiguous	ambiguous	1.0	preferred_right	600.0	30.0							31.701599399908446	0.06661239999812096
11	22.14818249992095	stim	163		4	ambiguous	ambiguous	1.0	preferred_right	600.0	30.0							31.768211799906567	0.06697260006330907
11	22.21515509998426	stim	164		4	ambiguous	ambiguous	1.0	preferred_right	600.0	30.0							31.835184399969876	0.06679700000677258
11	22.28195209999103	stim	165		4	ambiguous	ambiguous	1.0	preferred_right	600.0	30.0							31.90198139997665	0.06687820004299283
11	22.348830300034024	stim	166		4	ambiguous	ambiguous	1.0	preferred_right	600.0	30.0							31.96885960001964	0.06669159990269691
11	22.41552189993672	stim	167		4	ambiguous	ambiguous	1.0	preferred_right	600.0	30.0							32.03555119992234	0.06679300009272993
11	22.48231490002945	stim	168		4	ambiguous	ambiguous	1.0	preferred_right	600.0	30.0							32.10234420001507	0.06668669998180121
11	22.549001600011252	stim	169		4	ambiguous	ambiguous	1.0	preferred_right	600.0	30.0							32.16903089999687	0.06745189998764545
11	22.616453499998897	stim	170		4	ambiguous	ambiguous	1.0	preferred_right	600.0	30.0							32.236482799984515	0.06680979998782277
11	22.68326329998672	stim	171		4	ambiguous	ambiguous	1.0	preferred_right	600.0	30.0							32.30329259997234	0.06707119999919087
11	22.75033449998591	stim	172		4	ambiguous	ambiguous	1.0	preferred_right	600.0	30.0							32.37036379997153	0.06713600002694875
11	22.81747050001286	stim	173		4	ambiguous	ambiguous	1.0	preferred_right	600.0	30.0							32.43749979999848	0.06683639995753765
11	22.884306899970397	stim	174		4	ambiguous	ambiguous	1.0	preferred_right	600.0	30.0							32.504336199956015	0.06669720006175339
11	22.95100410003215	stim	175		4	ambiguous	ambiguous	1.0	preferred_right	600.0	30.0							32.57103340001777	0.067337799933739
11	23.01834189996589	stim	176		4	ambiguous	ambiguous	1.0	preferred_right	600.0	30.0							32.63837119995151	0.06707210000604391
11	23.085413999971934	stim	177		4	ambiguous	ambiguous	1.0	preferred_right	600.0	30.0							32.70544329995755	0.06667219998780638
11	23.15208619995974	stim	178		4	ambiguous	ambiguous	1.0	preferred_right	600.0	30.0							32.77211549994536	0.06712550006341189
11	23.219211700023152	stim	179		4	ambiguous	ambiguous	1.0	preferred_right	600.0	30.0							32.83924100000877	0.06654889998026192
11	23.285760600003414	stim	180		4	ambiguous	ambiguous	1.0	preferred_right	600.0	30.0							32.90578989998903	0.06670600001234561
11	23.35246660001576	stim	181		4	ambiguous	ambiguous	1.0	preferred_right	600.0	30.0							32.97249590000138	0.0670783999375999
11	23.41954499995336	stim	182		4	ambiguous	ambiguous	1.0	preferred_right	600.0	30.0							33.03957429993898	0.0669497000053525
11	23.486494699958712	stim	183		4	ambiguous	ambiguous	1.0	preferred_right	600.0	30.0							33.10652399994433	0.06667219998780638
11	23.55316689994652	stim	184		4	ambiguous	ambiguous	1.0	preferred_right	600.0	30.0							33.173196199932136	0.0670507000759244
11	23.620217600022443	stim	185		4	ambiguous	ambiguous	1.0	preferred_right	600.0	30.0							33.24024690000806	0.0666807999368757
11	23.68689839995932	stim	186		4	ambiguous	ambiguous	1.0	preferred_right	600.0	30.0							33.306927699944936	0.06666460004635155
11	23.75356300000567	stim	187		4	ambiguous	ambiguous	1.0	preferred_right	600.0	30.0							33.37359229999129	0.06670039996970445
11	23.820263399975374	stim	188		4	ambiguous	ambiguous	1.0	preferred_right	600.0	30.0							33.44029269996099	0.06668140005785972
11	23.886944800033234	stim	189		4	ambiguous	ambiguous	1.0	preferred_right	600.0	30.0							33.50697410001885	0.06699379999190569
11	23.95393860002514	stim	190		4	ambiguous	ambiguous	1.0	preferred_right	600.0	30.0							33.57396790001076	0.06677609996404499
11	24.020714699989185	stim	191		4	ambiguous	ambiguous	1.0	preferred_right	600.0	30.0							33.6407439999748	0.06695729994680732
11	24.087671999935992	stim	192		4	ambiguous	ambiguous	1.0	preferred_right	600.0	30.0							33.70770129992161	0.06668530008755624
11	24.15435730002355	stim	193		4	ambiguous	ambiguous	1.0	preferred_right	600.0	30.0							33.774386600009166	0.06665299995802343
11	24.22101029998157	stim	194		4	ambiguous	ambiguous	1.0	preferred_right	600.0	30.0							33.84103959996719	0.06705009995494038
11	24.288060399936512	stim	195		4	ambiguous	ambiguous	1.0	preferred_right	600.0	30.0							33.90808969992213	0.06692930008284748
11	24.35498970001936	stim	196		4	ambiguous	ambiguous	1.0	preferred_right	600.0	30.0							33.97501900000498	0.0670115000102669
11	24.422001200029626	stim	197		4	ambiguous	ambiguous	1.0	preferred_right	600.0	30.0							34.042030500015244	0.06744119990617037
11	24.489442399935797	stim	198		4	ambiguous	ambiguous	1.0	preferred_right	600.0	30.0							34.109471699921414	0.06660520005971193
11	24.55604759999551	stim	199		4	ambiguous	ambiguous	1.0	preferred_right	600.0	30.0							34.176076899981126	0.06738389993552119
11	24.62343149993103	stim	200		4	ambiguous	ambiguous	1.0	preferred_right	600.0	30.0							34.24346079991665	0.06663540005683899
11	24.69006689998787	stim	201		4	ambiguous	ambiguous	1.0	preferred_right	600.0	30.0							34.310096199973486	0.06671699997968972
11	24.75678389996756	stim	202		4	ambiguous	ambiguous	1.0	preferred_right	600.0	30.0							34.376813199953176	0.06683480006176978
11	24.82361870002933	stim	203		4	ambiguous	ambiguous	1.0	preferred_right	600.0	30.0							34.443648000014946	0.08295889990404248
11	24.90657759993337	stim	204		4	ambiguous	ambiguous	1.0	preferred_right	600.0	30.0							34.52660689991899	0.06673489999957383
11	24.973312499932945	stim	205		4	ambiguous	ambiguous	1.0	preferred_right	600.0	30.0							34.59334179991856	0.06703919998835772
11	25.040351699921302	stim	206		4	ambiguous	ambiguous	1.0	preferred_right	600.0	30.0							34.66038099990692	0.0672371000982821
11	25.107588800019585	stim	207		4	ambiguous	ambiguous	1.0	preferred_right	600.0	30.0							34.7276181000052	0.06683999998494983
11	25.174428800004534	stim	208		4	ambiguous	ambiguous	1.0	preferred_right	600.0	30.0							34.79445809999015	0.0666191999334842
11	25.24104799993802	stim	209		4	ambiguous	ambiguous	1.0	preferred_right	600.0	30.0							34.861077299923636	0.06676160008646548
11	25.307809600024484	stim	210		4	ambiguous	ambiguous	1.0	preferred_right	600.0	30.0							34.9278389000101	0.06665479997172952
11	25.374464399996214	stim	211		4	ambiguous	ambiguous	1.0	preferred_right	600.0	30.0							34.99449369998183	0.06708910001907498
11	25.44155350001529	stim	212		4	ambiguous	ambiguous	1.0	preferred_right	600.0	30.0							35.061582800000906	0.06660409993492067
11	25.50815759995021	stim	213		4	ambiguous	ambiguous	1.0	preferred_right	600.0	30.0							35.12818689993583	0.06662599998526275
11	25.574783599935472	stim	214		4	ambiguous	ambiguous	1.0	preferred_right	600.0	30.0							35.19481289992109	0.0669458000920713
11	25.641729400027543	stim	215		4	ambiguous	ambiguous	1.0	preferred_right	600.0	30.0							35.26175870001316	0.06695059989579022
11	25.708679999923334	stim	216		4	ambiguous	ambiguous	1.0	preferred_right	600.0	30.0							35.32870929990895	0.06633729999884963
11	25.775017299922183	stim	217		4	ambiguous	ambiguous	1.0	preferred_right	600.0	30.0							35.3950465999078	0.06681109999772161
11	25.841828399919905	stim	218		4	ambiguous	ambiguous	1.0	preferred_right	600.0	30.0							35.46185769990552	0.06674750009551644
11	25.90857590001542	stim	219		4	ambiguous	ambiguous	1.0	preferred_right	600.0	30.0							35.52860520000104	0.06681439990643412
11	25.975390299921855	stim	220		4	ambiguous	ambiguous	1.0	preferred_right	600.0	30.0							35.59541959990747	0.06666850007604808
11	26.042058799997903	stim	221		4	ambiguous	ambiguous	1.0	preferred_right	600.0	30.0							35.66208809998352	0.06726979999803007
11	26.109328599995933	stim	222		4	ambiguous	ambiguous	1.0	preferred_right	600.0	30.0							35.72935789998155	0.06654309993609786
11	26.17587169993203	stim	223		4	ambiguous	ambiguous	1.0	preferred_right	600.0	30.0							35.79590099991765	0.06664199999067932
11	26.24251369992271	stim	224		4	ambiguous	ambiguous	1.0	preferred_right	600.0	30.0							35.86254299990833	0.06671600008849055
11	26.3092297000112	stim	225		4	ambiguous	ambiguous	1.0	preferred_right	600.0	30.0							35.92925899999682	0.06694769999012351
11	26.376177400001325	stim	226		4	ambiguous	ambiguous	1.0	preferred_right	600.0	30.0							35.99620669998694	0.06685489998199046
11	26.443032299983315	stim	227		4	ambiguous	ambiguous	1.0	preferred_right	600.0	30.0							36.06306159996893	0.06670560000929981
11	26.509737899992615	stim	228		4	ambiguous	ambiguous	1.0	preferred_right	600.0	30.0							36.12976719997823	0.06705630000215024
11	26.576794199994765	stim	229		4	ambiguous	ambiguous	1.0	preferred_right	600.0	30.0							36.19682349998038	0.06684049998875707
11	26.643634699983522	stim	230		4	ambiguous	ambiguous	1.0	preferred_right	600.0	30.0							36.26366399996914	0.06714900000952184
11	26.710783699993044	stim	231		4	ambiguous	ambiguous	1.0	preferred_right	600.0	30.0							36.33081299997866	0.06657389993779361
11	26.777357599930838	stim	232		4	ambiguous	ambiguous	1.0	preferred_right	600.0	30.0							36.397386899916455	0.06673690001480281
11	26.84409449994564	stim	233		4	ambiguous	ambiguous	1.0	preferred_right	600.0	30.0							36.46412379993126	0.0670424000127241
11	26.911136899958365	stim	234		4	ambiguous	ambiguous	1.0	preferred_right	600.0	30.0							36.53116619994398	0.06691539997700602
11	26.97805229993537	stim	235		4	ambiguous	ambiguous	1.0	preferred_right	600.0	30.0							36.59808159992099	0.06668070005252957
11	27.0447329999879	stim	236		4	ambiguous	ambiguous	1.0	preferred_right	600.0	30.0							36.66476229997352	0.06670149997808039
11	27.11143449996598	stim	237		4	ambiguous	ambiguous	1.0	preferred_right	600.0	30.0							36.7314637999516	0.06947710004169494
11	27.180911600007676	stim	238		4	ambiguous	ambiguous	1.0	preferred_right	600.0	30.0							36.80094089999329	0.0667198000010103
11	27.247631400008686	stim	239		4	ambiguous	ambiguous	1.0	preferred_right	600.0	30.0							36.8676606999943	0.0667630999814719
11	27.314394499990158	stim	240		4	ambiguous	ambiguous	1.0	preferred_right	600.0	30.0							36.934423799975775	0.06663210003171116
11	27.38102660002187	stim	241		4	ambiguous	ambiguous	1.0	preferred_right	600.0	30.0							37.001055900007486	0.06655649992171675
11	27.447583099943586	stim	242		4	ambiguous	ambiguous	1.0	preferred_right	600.0	30.0							37.0676123999292	0.0666834000730887
11	27.514266500016674	stim	243		4	ambiguous	ambiguous	1.0	preferred_right	600.0	30.0							37.13429580000229	0.067096299957484
11	27.58136279997416	stim	244		4	ambiguous	ambiguous	1.0	preferred_right	600.0	30.0							37.201392099959776	0.06737970001995564
11	27.648742499994114	stim	245		4	ambiguous	ambiguous	1.0	preferred_right	600.0	30.0							37.26877179997973	0.06793939997442067
11	27.716681899968535	stim	246		4	ambiguous	ambiguous	1.0	preferred_right	600.0	30.0							37.33671119995415	0.06719560001511127
11	27.783877499983646	stim	247		4	ambiguous	ambiguous	1.0	preferred_right	600.0	30.0							37.40390679996926	0.06666320003569126
11	27.850540700019337	stim	248		4	ambiguous	ambiguous	1.0	preferred_right	600.0	30.0							37.470570000004955	0.06675879994872957
11	27.917299499968067	stim	249		4	ambiguous	ambiguous	1.0	preferred_right	600.0	30.0							37.537328799953684	0.0669612999772653
11	27.984260799945332	stim	250		4	ambiguous	ambiguous	1.0	preferred_right	600.0	30.0							37.60429009993095	0.06728580000344664
11	28.05154659994878	stim	251		4	ambiguous	ambiguous	1.0	preferred_right	600.0	30.0							37.671575899934396	0.06698630005121231
11	28.11853289999999	stim	252		4	ambiguous	ambiguous	1.0	preferred_right	600.0	30.0							37.73856219998561	0.06704210001043975
11	28.18557500001043	stim	253		4	ambiguous	ambiguous	1.0	preferred_right	600.0	30.0							37.80560429999605	0.06737149995751679
11	28.252946499967948	stim	254		4	ambiguous	ambiguous	1.0	preferred_right	600.0	30.0							37.872975799953565	0.06703320005908608
11	28.319979700027034	stim	255		4	ambiguous	ambiguous	1.0	preferred_right	600.0	30.0							37.94000900001265	0.06726269994396716
11	28.387242399971	stim	256		4	ambiguous	ambiguous	1.0	preferred_right	600.0	30.0							38.00727169995662	0.08347710000816733
11	28.470719499979168	stim	257		4	ambiguous	ambiguous	1.0	preferred_right	600.0	30.0							38.090748799964786	0.083412199979648
11	28.554131699958816	stim	258		4	ambiguous	ambiguous	1.0	preferred_right	600.0	30.0							38.174160999944434	0.06675610004458576
11	28.620887800003402	stim	259		4	ambiguous	ambiguous	1.0	preferred_right	600.0	30.0							38.24091709998902	0.08331170002929866
11	28.7041995000327	stim	260		4	ambiguous	ambiguous	1.0	preferred_right	600.0	30.0							38.32422880001832	0.06687309988774359
11	28.771072599920444	stim	261		4	ambiguous	ambiguous	1.0	preferred_right	600.0	30.0							38.39110189990606	0.06668990000616759
11	28.837762499926612	stim	262		4	ambiguous	ambiguous	1.0	preferred_right	600.0	30.0							38.45779179991223	0.06655430002138019
11	28.904316799947992	stim	263		4	ambiguous	ambiguous	1.0	preferred_right	600.0	30.0							38.52434609993361	0.06690860004164279
11	28.971225399989635	stim	264		4	ambiguous	ambiguous	1.0	preferred_right	600.0	30.0							38.59125469997525	0.06751920003443956
11	29.038744600024074	stim	265		4	ambiguous	ambiguous	1.0	preferred_right	600.0	30.0							38.65877390000969	0.06736699992325157
11	29.106111599947326	stim	266		4	ambiguous	ambiguous	1.0	preferred_right	600.0	30.0							38.72614089993294	0.06668030004948378
11	29.17279189999681	stim	267		4	ambiguous	ambiguous	1.0	preferred_right	600.0	30.0							38.79282119998243	0.06648819998372346
11	29.239280099980533	stim	268		4	ambiguous	ambiguous	1.0	preferred_right	600.0	30.0							38.85930939996615	0.06716560001950711
11	29.30644570000004	stim	269		4	ambiguous	ambiguous	1.0	preferred_right	600.0	30.0							38.92647499998566	0.08340130001306534
11	29.389847000013106	stim	270		4	ambiguous	ambiguous	1.0	preferred_right	600.0	30.0							39.00987629999872	0.08333689998835325
11	29.47318390000146	stim	271		4	ambiguous	ambiguous	1.0	preferred_right	600.0	30.0							39.093213199987076	0.06689190003089607
11	29.540075800032355	stim	272		4	ambiguous	ambiguous	1.0	preferred_right	600.0	30.0							39.16010510001797	0.08380349993240088
11	29.623879299964756	stim	273		4	ambiguous	ambiguous	1.0	preferred_right	600.0	30.0							39.24390859995037	0.06691230006981641
11	29.690791600034572	stim	274		4	ambiguous	ambiguous	1.0	preferred_right	600.0	30.0							39.31082090002019	0.08269589999690652
11	29.77348750003148	stim	275		4	ambiguous	ambiguous	1.0	preferred_right	600.0	30.0							39.393516800017096	0.06666729995049536
11	29.840154799981974	stim	276		4	ambiguous	ambiguous	1.0	preferred_right	600.0	30.0							39.46018409996759	0.06665880000218749
11	29.90681359998416	stim	277		4	ambiguous	ambiguous	1.0	preferred_right	600.0	30.0							39.52684289996978	0.06676890002563596
11	29.973582500009798	stim	278		4	ambiguous	ambiguous	1.0	preferred_right	600.0	30.0							39.593611799995415	0.06707420002203435
11	30.040656700031832	stim	279		4	ambiguous	ambiguous	1.0	preferred_right	600.0	30.0							39.66068600001745	0.067190199973993
11	30.107846900005825	stim	280		4	ambiguous	ambiguous	1.0	preferred_right	600.0	30.0							39.72787619999144	0.06685059994924814
11	30.174697499955073	stim	281		4	ambiguous	ambiguous	1.0	preferred_right	600.0	30.0							39.79472679994069	0.06681660003960133
11	30.241514099994674	stim	282		4	ambiguous	ambiguous	1.0	preferred_right	600.0	30.0							39.86154339998029	0.06651099992450327
11	30.308025099919178	stim	283		4	ambiguous	ambiguous	1.0	preferred_right	600.0	30.0							39.928054399904795	0.06708890001755208
11	30.37511399993673	stim	284		4	ambiguous	ambiguous	1.0	preferred_right	600.0	30.0							39.99514329992235	0.06686080002691597
11	30.441974799963646	stim	285		4	ambiguous	ambiguous	1.0	preferred_right	600.0	30.0							40.06200409994926	0.06702379998750985
11	30.508998599951155	stim	286		4	ambiguous	ambiguous	1.0	preferred_right	600.0	30.0							40.12902789993677	0.06712949997745454
11	30.57612809992861	stim	287		4	ambiguous	ambiguous	1.0	preferred_right	600.0	30.0							40.19615739991423	0.06672400003299117
11	30.6428520999616	stim	288		4	ambiguous	ambiguous	1.0	preferred_right	600.0	30.0							40.26288139994722	0.06677120004314929
11	30.70962330000475	stim	289		4	ambiguous	ambiguous	1.0	preferred_right	600.0	30.0							40.32965259999037	0.0665870999218896
11	30.77621039992664	stim	290		4	ambiguous	ambiguous	1.0	preferred_right	600.0	30.0							40.39623969991226	0.06657590006943792
11	30.842786299996078	stim	291		4	ambiguous	ambiguous	1.0	preferred_right	600.0	30.0							40.462815599981695	0.06673209997825325
11	30.90951839997433	stim	292		4	ambiguous	ambiguous	1.0	preferred_right	600.0	30.0							40.52954769995995	0.06686160003300756
11	30.97638000000734	stim	293		4	ambiguous	ambiguous	1.0	preferred_right	600.0	30.0							40.596409299992956	0.06688259996008128
11	31.04326259996742	stim	294		4	ambiguous	ambiguous	1.0	preferred_right	600.0	30.0							40.66329189995304	0.06657789996825159
11	31.10984049993567	stim	295		4	ambiguous	ambiguous	1.0	preferred_right	600.0	30.0							40.72986979992129	0.06670419999863952
11	31.17654469993431	stim	296		4	ambiguous	ambiguous	1.0	preferred_right	600.0	30.0							40.79657399991993	0.06694360007531941
11	31.24348830000963	stim	297		4	ambiguous	ambiguous	1.0	preferred_right	600.0	30.0							40.86351759999525	0.06678849994204938
11	31.31027679995168	stim	298		4	ambiguous	ambiguous	1.0	preferred_right	600.0	30.0							40.9303060999373	0.06705289997626096
11	31.37732969992794	stim	299		4	ambiguous	ambiguous	1.0	preferred_right	600.0	30.0							40.99735899991356	0.06678800005465746
11	31.4441176999826	stim	300		4	ambiguous	ambiguous	1.0	preferred_right	600.0	30.0							41.064146999968216	0.0667826000135392
11	31.510900299996138	stim	301		4	ambiguous	ambiguous	1.0	preferred_right	600.0	30.0							41.130929599981755	0.0665523000061512
11	31.57745260000229	stim	302		4	ambiguous	ambiguous	1.0	preferred_right	600.0	30.0							41.197481899987906	0.06661560002248734
11	31.644068200024776	stim	303		4	ambiguous	ambiguous	1.0	preferred_right	600.0	30.0							41.264097500010394	0.06665579997934401
11	31.71072400000412	stim	304		4	ambiguous	ambiguous	1.0	preferred_right	600.0	30.0							41.33075329998974	0.06680789997335523
11	31.777531899977475	stim	305		4	ambiguous	ambiguous	1.0	preferred_right	600.0	30.0							41.39756119996309	0.06673269998282194
11	31.844264599960297	stim	306		4	ambiguous	ambiguous	1.0	preferred_right	600.0	30.0							41.464293899945915	0.06666560005396605
11	31.910930200014263	stim	307		4	ambiguous	ambiguous	1.0	preferred_right	600.0	30.0							41.53095949999988	0.06666629994288087
11	31.977596499957144	stim	308		4	ambiguous	ambiguous	1.0	preferred_right	600.0	30.0							41.59762579994276	0.07018929999321699
11	32.04778579995036	stim	309		4	ambiguous	ambiguous	1.0	preferred_right	600.0	30.0							41.66781509993598	0.06659429997671396
11	32.114380099927075	stim	310		4	ambiguous	ambiguous	1.0	preferred_right	600.0	30.0							41.73440939991269	0.067416200065054
11	32.18179629999213	stim	311		4	ambiguous	ambiguous	1.0	preferred_right	600.0	30.0							41.80182559997775	0.0823956000385806
11	32.26419190003071	stim	312		4	ambiguous	ambiguous	1.0	preferred_right	600.0	30.0							41.88422120001633	0.06664259999524802
11	32.33083450002596	stim	313		4	ambiguous	ambiguous	1.0	preferred_right	600.0	30.0							41.950863800011575	0.06771019997540861
11	32.398544700001366	stim	314		4	ambiguous	ambiguous	1.0	preferred_right	600.0	30.0							42.018573999986984	0.06751630001235753
11	32.466061000013724	stim	315		4	ambiguous	ambiguous	1.0	preferred_right	600.0	30.0							42.08609029999934	0.06716450001113117
11	32.533225500024855	stim	316		4	ambiguous	ambiguous	1.0	preferred_right	600.0	30.0							42.15325480001047	0.06693369999993593
11	32.60015920002479	stim	317		4	ambiguous	ambiguous	1.0	preferred_right	600.0	30.0							42.22018850001041	0.06684339989442378
11	32.667002599919215	stim	318		4	ambiguous	ambiguous	1.0	preferred_right	600.0	30.0							42.28703189990483	0.06700940011069179
11	32.73401200002991	stim	319		4	ambiguous	ambiguous	1.0	preferred_right	600.0	30.0							42.354041300015524	0.0666624999139458
11	32.80067449994385	stim	320		4	ambiguous	ambiguous	1.0	preferred_right	600.0	30.0							42.42070379992947	0.06704650004394352
11	32.867720999987796	stim	321		4	ambiguous	ambiguous	1.0	preferred_right	600.0	30.0							42.48775029997341	0.06680819997563958
11	32.934529199963436	stim	322		4	ambiguous	ambiguous	1.0	preferred_right	600.0	30.0							42.55455849994905	0.08327990001998842
11	33.017809099983424	stim	323		4	ambiguous	ambiguous	1.0	preferred_right	600.0	30.0							42.63783839996904	0.06688449997454882
11	33.08469359995797	stim	324		4	ambiguous	ambiguous	1.0	preferred_right	600.0	30.0							42.70472289994359	0.08320230001118034
11	33.16789589996915	stim	325		4	ambiguous	ambiguous	1.0	preferred_right	600.0	30.0							42.78792519995477	0.06668429996352643
11	33.23458019993268	stim	326		4	ambiguous	ambiguous	1.0	preferred_right	600.0	30.0							42.8546094999183	0.08354620006866753
11	33.31812640000135	stim	327		4	ambiguous	ambiguous	1.0	preferred_right	600.0	30.0							42.938155699986964	0.06671709998045117
11	33.3848434999818	stim	328		4	ambiguous	ambiguous	1.0	preferred_right	600.0	30.0							43.004872799967416	0.06664179998915642
11	33.451485299970955	stim	329		4	ambiguous	ambiguous	1.0	preferred_right	600.0	30.0							43.07151459995657	0.06697769998572767
11	33.51846299995668	stim	330		4	ambiguous	ambiguous	1.0	preferred_right	600.0	30.0							43.1384922999423	0.06654270004946738
11	33.58500570000615	stim	331		4	ambiguous	ambiguous	1.0	preferred_right	600.0	30.0							43.20503499999177	0.0670039999531582
11	33.65200969995931	stim	332		4	ambiguous	ambiguous	1.0	preferred_right	600.0	30.0							43.272038999944925	0.06675990007352084
11	33.71876960003283	stim	333		4	ambiguous	ambiguous	1.0	preferred_right	600.0	30.0							43.338798900018446	0.0831196999642998
11	33.80188929999713	stim	334		4	ambiguous	ambiguous	1.0	preferred_right	600.0	30.0							43.421918599982746	0.08351939998101443
11	33.88540869997814	stim	335		4	ambiguous	ambiguous	1.0	preferred_right	600.0	30.0							43.50543799996376	0.06659740000031888
11	33.95200609997846	stim	336		4	ambiguous	ambiguous	1.0	preferred_right	600.0	30.0							43.57203539996408	0.06707560003269464
11	34.01908170001116	stim	337		4	ambiguous	ambiguous	1.0	preferred_right	600.0	30.0							43.639110999996774	0.06703059992287308
11	34.08611229993403	stim	338		4	ambiguous	ambiguous	1.0	preferred_right	600.0	30.0							43.70614159991965	0.0671239000512287
11	34.15323619998526	stim	339		4	ambiguous	ambiguous	1.0	preferred_right	600.0	30.0							43.773265499970876	0.06778859999030828
11	34.22102479997557	stim	340		4	ambiguous	ambiguous	1.0	preferred_right	600.0	30.0							43.841054099961184	0.06695110001601279
11	34.28797589999158	stim	341		4	ambiguous	ambiguous	1.0	preferred_right	600.0	30.0							43.9080051999772	0.06736069999169558
11	34.355336599983275	stim	342		4	ambiguous	ambiguous	1.0	preferred_right	600.0	30.0							43.97536589996889	0.06718569993972778
11	34.422522299923	stim	343		4	ambiguous	ambiguous	1.0	preferred_right	600.0	30.0							44.04255159990862	0.06663890008348972
11	34.48916120000649	stim	344		4	ambiguous	ambiguous	1.0	preferred_right	600.0	30.0							44.10919049999211	0.06711159995757043
11	34.55627279996406	stim	345		4	ambiguous	ambiguous	1.0	preferred_right	600.0	30.0							44.17630209994968	0.06664940004702657
11	34.62292220001109	stim	346		4	ambiguous	ambiguous	1.0	preferred_right	600.0	30.0							44.24295149999671	0.06672080000862479
11	34.689643000019714	stim	347		4	ambiguous	ambiguous	1.0	preferred_right	600.0	30.0							44.30967230000533	0.06712299992796034
11	34.756765999947675	stim	348		4	ambiguous	ambiguous	1.0	preferred_right	600.0	30.0							44.37679529993329	0.06677989999298006
11	34.823545899940655	stim	349		4	ambiguous	ambiguous	1.0	preferred_right	600.0	30.0							44.44357519992627	0.0668563999934122
11	34.89040229993407	stim	350		4	ambiguous	ambiguous	1.0	preferred_right	600.0	30.0							44.510431599919684	0.06669650005642325
11	34.95709879999049	stim	351		4	ambiguous	ambiguous	1.0	preferred_right	600.0	30.0							44.57712809997611	0.06664380000438541
11	35.023742599994875	stim	352		4	ambiguous	ambiguous	1.0	preferred_right	600.0	30.0							44.64377189998049	0.06669360003434122
11	35.09043620002922	stim	353		4	ambiguous	ambiguous	1.0	preferred_right	600.0	30.0							44.710465500014834	0.06714929989539087
11	35.15758549992461	stim	354		4	ambiguous	ambiguous	1.0	preferred_right	600.0	30.0							44.777614799910225	0.06655160000082105
11	35.22413709992543	stim	355		4	ambiguous	ambiguous	1.0	preferred_right	600.0	30.0							44.844166399911046	0.06649100000504404
11	35.29062809993047	stim	356		4	ambiguous	ambiguous	1.0	preferred_right	600.0	30.0							44.91065739991609	0.06700690009165555
11	35.35763500002213	stim	357		4	ambiguous	ambiguous	1.0	preferred_right	600.0	30.0							44.977664300007746	0.06631189992185682
11	35.423946899943985	stim	358		4	ambiguous	ambiguous	1.0	preferred_right	600.0	30.0							45.0439761999296	0.06669130001682788
11	35.49063819996081	stim	359		4	ambiguous	ambiguous	1.0	preferred_right	600.0	30.0							45.11066749994643	0.0667319999774918
11	35.557370199938305	stim	360		4	ambiguous	ambiguous	1.0	preferred_right	600.0	30.0							45.17739949992392	0.06678210000973195
11	35.62415229994804	stim	361		4	ambiguous	ambiguous	1.0	preferred_right	600.0	30.0							45.244181599933654	0.06665340007748455
11	35.69080570002552	stim	362		4	ambiguous	ambiguous	1.0	preferred_right	600.0	30.0							45.31083500001114	0.06696119997650385
11	35.757766900002025	stim	363		4	ambiguous	ambiguous	1.0	preferred_right	600.0	30.0							45.37779619998764	0.06702620000578463
11	35.82479310000781	stim	364		4	ambiguous	ambiguous	1.0	preferred_right	600.0	30.0							45.44482239999343	0.06713580002542585
11	35.891928900033236	stim	365		4	ambiguous	ambiguous	1.0	preferred_right	600.0	30.0							45.51195820001885	0.06697769998572767
11	35.95890660001896	stim	366		4	ambiguous	ambiguous	1.0	preferred_right	600.0	30.0							45.57893590000458	0.06657469994388521
11	36.02548129996285	stim	367		4	ambiguous	ambiguous	1.0	preferred_right	600.0	30.0							45.645510599948466	0.06712140003219247
11	36.09260269999504	stim	368		4	ambiguous	ambiguous	1.0	preferred_right	600.0	30.0							45.71263199998066	0.0667187999933958
11	36.15932149998844	stim	369		4	ambiguous	ambiguous	1.0	preferred_right	600.0	30.0							45.779350799974054	0.06669380003586411
11	36.2260153000243	stim	370		4	ambiguous	ambiguous	1.0	preferred_right	600.0	30.0							45.84604460000992	0.06663959997240454
11	36.292654899996705	stim	371		4	ambiguous	ambiguous	1.0	preferred_right	600.0	30.0							45.91268419998232	0.06662830000277609
11	36.35928319999948	stim	372		4	ambiguous	ambiguous	1.0	preferred_right	600.0	30.0							45.9793124999851	0.0667309999698773
11	36.42601419996936	stim	373		4	ambiguous	ambiguous	1.0	preferred_right	600.0	30.0							46.046043499954976	0.0668063999619335
11	36.49282059993129	stim	374		4	ambiguous	ambiguous	1.0	preferred_right	600.0	30.0							46.11284989991691	0.0666456000180915
11	36.559466199949384	stim	375		4	ambiguous	ambiguous	1.0	preferred_right	600.0	30.0							46.179495499935	0.06712250004056841
11	36.62658869998995	stim	376		4	ambiguous	ambiguous	1.0	preferred_right	600.0	30.0							46.24661799997557	0.06682890001684427
11	36.693417600006796	stim	377		4	ambiguous	ambiguous	1.0	preferred_right	600.0	30.0							46.313446899992414	0.06690440000966191
11	36.76032200001646	stim	378		4	ambiguous	ambiguous	1.0	preferred_right	600.0	30.0							46.380351300002076	0.06661009998060763
11	36.826932099997066	stim	379		4	ambiguous	ambiguous	1.0	preferred_right	600.0	30.0							46.44696139998268	0.06674889998976141
11	36.89368099998683	stim	380		4	ambiguous	ambiguous	1.0	preferred_right	600.0	30.0							46.513710299972445	0.0666775000281632
11	36.96035850001499	stim	381		4	ambiguous	ambiguous	1.0	preferred_right	600.0	30.0							46.58038780000061	0.066785299917683
11	37.027143799932674	stim	382		4	ambiguous	ambiguous	1.0	preferred_right	600.0	30.0							46.64717309991829	0.06673170009162277
11	37.093875500024296	stim	383		4	ambiguous	ambiguous	1.0	preferred_right	600.0	30.0							46.713904800009914	0.06655539991334081
11	37.16043089993764	stim	384		4	ambiguous	ambiguous	1.0	preferred_right	600.0	30.0							46.780460199923255	0.06735880009364337
11	37.22778970003128	stim	385		4	ambiguous	ambiguous	1.0	preferred_right	600.0	30.0							46.8478190000169	0.06682029995135963
11	37.29460999998264	stim	386		4	ambiguous	ambiguous	1.0	preferred_right	600.0	30.0							46.91463929996826	0.06664089998230338
11	37.36125089996494	stim	387		4	ambiguous	ambiguous	1.0	preferred_right	600.0	30.0							46.98128019995056	0.06949969998095185
11	37.430750599945895	stim	388		4	ambiguous	ambiguous	1.0	preferred_right	600.0	30.0							47.05077989993151	0.06664860004093498
11	37.49739919998683	stim	389		4	ambiguous	ambiguous	1.0	preferred_right	600.0	30.0							47.11742849997245	0.06656579999253154
11	37.56396499997936	stim	390		4	ambiguous	ambiguous	1.0	preferred_right	600.0	30.0							47.18399429996498	0.06681059999391437
11	37.630775599973276	stim	391		4	ambiguous	ambiguous	1.0	preferred_right	600.0	30.0							47.250804899958894	0.06653029995504767
11	37.697305899928324	stim	392		4	ambiguous	ambiguous	1.0	preferred_right	600.0	30.0							47.31733519991394	0.06666100001893938
11	37.76396689994726	stim	393		4	ambiguous	ambiguous	1.0	preferred_right	600.0	30.0							47.38399619993288	0.06679070007521659
11	37.83075760002248	stim	394		4	ambiguous	ambiguous	1.0	preferred_right	600.0	30.0							47.4507869000081	0.06655369990039617
11	37.897311299922876	stim	395		4	ambiguous	ambiguous	1.0	preferred_right	600.0	30.0							47.51734059990849	0.06666220002807677
11	37.96397349995095	stim	396		4	ambiguous	ambiguous	1.0	preferred_right	600.0	30.0							47.58400279993657	0.06672260002233088
11	38.030696099973284	stim	397		4	ambiguous	ambiguous	1.0	preferred_right	600.0	30.0							47.6507253999589	0.06675370002631098
11	38.097449799999595	stim	398		4	ambiguous	ambiguous	1.0	preferred_right	600.0	30.0							47.71747909998521	0.06656089995522052
11	38.164010699954815	stim	399		4	ambiguous	ambiguous	1.0	preferred_right	600.0	30.0							47.78403999994043	0.06663560005836189
11	38.23064630001318	stim	400		4	ambiguous	ambiguous	1.0	preferred_right	600.0	30.0							47.850675599998794	0.06688459997531027
11	38.29753089998849	stim	401		4	ambiguous	ambiguous	1.0	preferred_right	600.0	30.0							47.917560199974105	0.06654429994523525
11	38.36407519993372	stim	402		4	ambiguous	ambiguous	1.0	preferred_right	600.0	30.0							47.98410449991934	0.06741080002393574
11	38.43148599995766	stim	403		4	ambiguous	ambiguous	1.0	preferred_right	600.0	30.0							48.051515299943276	0.066980000003241
11	38.4984659999609	stim	404		4	ambiguous	ambiguous	1.0	preferred_right	600.0	30.0							48.11849529994652	0.06805540004279464
11	38.566521400003694	stim	405		4	ambiguous	ambiguous	1.0	preferred_right	600.0	30.0							48.18655069998931	0.06751439999789
11	38.634035800001584	stim	406		4	ambiguous	ambiguous	1.0	preferred_right	600.0	30.0							48.2540650999872	0.06676830002106726
11	38.70080410002265	stim	407		4	ambiguous	ambiguous	1.0	preferred_right	600.0	30.0							48.32083340000827	0.06694629997946322
11	38.767750400002114	stim	408		4	ambiguous	ambiguous	1.0	preferred_right	600.0	30.0							48.38777969998773	0.06637779995799065
11	38.834128199960105	stim	409		4	ambiguous	ambiguous	1.0	preferred_right	600.0	30.0							48.45415749994572	0.06667239998932928
11	38.900800599949434	stim	410		4	ambiguous	ambiguous	1.0	preferred_right	600.0	30.0							48.52082989993505	0.06705790001433343
11	38.96785849996377	stim	411		4	ambiguous	ambiguous	1.0	preferred_right	600.0	30.0							48.587887799949385	0.06717559997923672
11	39.035034099943005	stim	412		4	ambiguous	ambiguous	1.0	preferred_right	600.0	30.0							48.65506339992862	0.06657989998348057
11	39.101613999926485	stim	413		4	ambiguous	ambiguous	1.0	preferred_right	600.0	30.0							48.7216432999121	0.06667170010041445
11	39.1682857000269	stim	414		4	ambiguous	ambiguous	1.0	preferred_right	600.0	30.0							48.78831500001252	0.06708429998252541
11	39.235370000009425	stim	415		4	ambiguous	ambiguous	1.0	preferred_right	600.0	30.0							48.85539929999504	0.06677789997775108
11	39.302147899987176	stim	416		4	ambiguous	ambiguous	1.0	preferred_right	600.0	30.0							48.92217719997279	0.06698310002684593
11	39.36913100001402	stim	417		4	ambiguous	ambiguous	1.0	preferred_right	600.0	30.0							48.98916029999964	0.06705700000748038
11	39.4361880000215	stim	418		4	ambiguous	ambiguous	1.0	preferred_right	600.0	30.0							49.05621730000712	0.06741739995777607
11	39.50360539997928	stim	419		4	ambiguous	ambiguous	1.0	preferred_right	600.0	30.0							49.123634699964896	0.06727390002924949
11	39.57087930000853	stim	420		4	ambiguous	ambiguous	1.0	preferred_right	600.0	30.0							49.190908599994145	0.06678029999602586
11	39.637659600004554	stim	421		4	ambiguous	ambiguous	1.0	preferred_right	600.0	30.0							49.25768889999017	0.06693209998775274
11	39.70459169999231	stim	422		4	ambiguous	ambiguous	1.0	preferred_right	600.0	30.0							49.324620999977924	0.06673389999195933
11	39.771325599984266	stim	423		4	ambiguous	ambiguous	1.0	preferred_right	600.0	30.0							49.39135489996988	0.0670928000472486
11	39.838418400031514	stim	424		4	ambiguous	ambiguous	1.0	preferred_right	600.0	30.0							49.45844770001713	0.06675859994720668
11	39.90517699997872	stim	425		4	ambiguous	ambiguous	1.0	preferred_right	600.0	30.0							49.52520629996434	0.06671170005574822
11	39.97188870003447	stim	426		4	ambiguous	ambiguous	1.0	preferred_right	600.0	30.0							49.59191800002009	0.06673919991590083
11	40.03862789995037	stim	427		4	ambiguous	ambiguous	1.0	preferred_right	600.0	30.0							49.65865719993599	0.06741919997148216
11	40.10604709992185	stim	428		4	ambiguous	ambiguous	1.0	preferred_right	600.0	30.0							49.72607639990747	0.067304200027138
11	40.17335129994899	stim	429		4	ambiguous	ambiguous	1.0	preferred_right	600.0	30.0							49.79338059993461	0.06700470007490367
11	40.240356000023894	stim	430		4	ambiguous	ambiguous	1.0	preferred_right	600.0	30.0							49.86038530000951	0.06668799999170005
11	40.307044000015594	stim	431		4	ambiguous	ambiguous	1.0	preferred_right	600.0	30.0							49.92707330000121	0.06695969996508211
11	40.374003699980676	stim	432		4	ambiguous	ambiguous	1.0	preferred_right	600.0	30.0							49.994032999966294	0.06666909996420145
11	40.44067279994488	stim	433		4	ambiguous	ambiguous	1.0	preferred_right	600.0	30.0							50.060702099930495	0.06712380005046725
11	40.507796599995345	stim	434		4	ambiguous	ambiguous	1.0	preferred_right	600.0	30.0							50.12782589998096	0.06665709998924285
11	40.57445369998459	stim	435		4	ambiguous	ambiguous	1.0	preferred_right	600.0	30.0							50.194482999970205	0.06675019999966025
11	40.64120389998425	stim	436		4	ambiguous	ambiguous	1.0	preferred_right	600.0	30.0							50.261233199969865	0.06692689994815737
11	40.708130799932405	stim	437		4	ambiguous	ambiguous	1.0	preferred_right	600.0	30.0							50.32816009991802	0.06694749998860061
11	40.775078299921006	stim	438		4	ambiguous	ambiguous	1.0	preferred_right	600.0	30.0							50.39510759990662	0.06656890001613647
11	40.84164719993714	stim	439		4	ambiguous	ambiguous	1.0	preferred_right	600.0	30.0							50.46167649992276	0.06666360003873706
11	40.90831079997588	stim	440		4	ambiguous	ambiguous	1.0	preferred_right	600.0	30.0							50.5283400999615	0.06678830005694181
11	40.97509910003282	stim	441		4	ambiguous	ambiguous	1.0	preferred_right	600.0	30.0							50.59512840001844	0.06689089990686625
11	41.04198999993969	stim	442		4	ambiguous	ambiguous	1.0	preferred_right	600.0	30.0							50.662019299925305	0.06666400004178286
11	41.10865399998147	stim	443		4	ambiguous	ambiguous	1.0	preferred_right	600.0	30.0							50.72868329996709	0.06670239998493344
11	41.175356399966404	stim	444		4	ambiguous	ambiguous	1.0	preferred_right	600.0	30.0							50.79538569995202	0.06691170006524771
11	41.24226810003165	stim	445		4	ambiguous	ambiguous	1.0	preferred_right	600.0	30.0							50.86229740001727	0.06693009997252375
11	41.309198200004175	stim	446		4	ambiguous	ambiguous	1.0	preferred_right	600.0	30.0							50.92922749998979	0.06692150002345443
11	41.37611970002763	stim	447		4	ambiguous	ambiguous	1.0	preferred_right	600.0	30.0							50.99614900001325	0.06669019989203662
11	41.442809899919666	stim	448		4	ambiguous	ambiguous	1.0	preferred_right	600.0	30.0							51.062839199905284	0.06686190003529191
11	41.50967179995496	stim	449		4	ambiguous	ambiguous	1.0	preferred_right	600.0	30.0							51.129701099940576	0.06649470003321767
11	41.576166499988176	stim	450		4	ambiguous	ambiguous	1.0	preferred_right	600.0	30.0							51.19619579997379	0.06679239997174591
11	41.64295889995992	stim	451		4	ambiguous	ambiguous	1.0	preferred_right	600.0	30.0							51.26298819994554	0.06735510006546974
11	41.71031400002539	stim	452		4	ambiguous	ambiguous	1.0	preferred_right	600.0	30.0							51.33034330001101	0.06670839991420507
11	41.7770223999396	stim	453		4	ambiguous	ambiguous	1.0	preferred_right	600.0	30.0							51.397051699925214	0.06675720005296171
11	41.84377959999256	stim	454		4	ambiguous	ambiguous	1.0	preferred_right	600.0	30.0							51.463808899978176	0.06664189998991787
11	41.910421499982476	stim	455		4	ambiguous	ambiguous	1.0	preferred_right	600.0	30.0							51.530450799968094	0.06660999997984618
11	41.97703149996232	stim	456		4	ambiguous	ambiguous	1.0	preferred_right	600.0	30.0							51.59706079994794	0.06702469999436289
11	42.044056199956685	stim	457		4	ambiguous	ambiguous	1.0	preferred_right	600.0	30.0							51.6640854999423	0.06682160007767379
11	42.11087780003436	stim	458		4	ambiguous	ambiguous	1.0	preferred_right	600.0	30.0							51.73090710001998	0.06654879997950047
11	42.17742660001386	stim	459		4	ambiguous	ambiguous	1.0	preferred_right	600.0	30.0							51.79745589999948	0.06667239998932928
11	42.24409900000319	stim	460		4	ambiguous	ambiguous	1.0	preferred_right	600.0	30.0							51.864128299988806	0.06665960000827909
11	42.31075860001147	stim	461		4	ambiguous	ambiguous	1.0	preferred_right	600.0	30.0							51.930787899997085	0.0666994999628514
11	42.37745809997432	stim	462		4	ambiguous	ambiguous	1.0	preferred_right	600.0	30.0							51.99748739995994	0.06696630001533777
11	42.44442439998966	stim	463		4	ambiguous	ambiguous	1.0	preferred_right	600.0	30.0							52.064453699975275	0.06667420000303537
11	42.51109859999269	stim	464		4	ambiguous	ambiguous	1.0	preferred_right	600.0	30.0							52.13112789997831	0.06662269996013492
11	42.57772129995283	stim	465		4	ambiguous	ambiguous	1.0	preferred_right	600.0	30.0							52.197750599938445	0.06685399997513741
11	42.644575299927965	stim	466		4	ambiguous	ambiguous	1.0	preferred_right	600.0	30.0							52.26460459991358	0.06964860006701201
11	42.71422389999498	stim	467		4	ambiguous	ambiguous	1.0	preferred_right	600.0	30.0							52.334253199980594	0.06651259993668646
11	42.78073649993166	stim	468		4	ambiguous	ambiguous	1.0	preferred_right	600.0	30.0							52.40076579991728	0.06644030008465052
11	42.847176800016314	stim	469		4	ambiguous	ambiguous	1.0	preferred_right	600.0	30.0							52.46720610000193	0.06672839995007962
11	42.91390519996639	stim	470		4	ambiguous	ambiguous	1.0	preferred_right	600.0	30.0							52.53393449995201	0.06662850000429899
11	42.98053369997069	stim	471		4	ambiguous	ambiguous	1.0	preferred_right	600.0	30.0							52.60056299995631	0.06665960000827909
11	43.04719329997897	stim	472		4	ambiguous	ambiguous	1.0	preferred_right	600.0	30.0							52.66722259996459	0.06668529997114092
11	43.11387859995011	stim	473		4	ambiguous	ambiguous	1.0	preferred_right	600.0	30.0							52.73390789993573	0.06729000003542751
11	43.18116859998554	stim	474		4	ambiguous	ambiguous	1.0	preferred_right	600.0	30.0							52.80119789997116	0.06600440002512187
11	43.24717300001066	stim	475		4	ambiguous	ambiguous	1.0	preferred_right	600.0	30.0							52.86720229999628	0.06705790001433343
11	43.314230900024995	stim	476		4	ambiguous	ambiguous	1.0	preferred_right	600.0	30.0							52.93426020001061	0.0666803999338299
11	43.380911299958825	stim	477		4	ambiguous	ambiguous	1.0	preferred_right	600.0	30.0							53.00094059994444	0.06659449997823685
11	43.44750579993706	stim	478		4	ambiguous	ambiguous	1.0	preferred_right	600.0	30.0							53.06753509992268	0.06705509999301285
11	43.514560899930075	stim	479		4	ambiguous	ambiguous	1.0	preferred_right	600.0	30.0							53.13459019991569	0.06671750009991229
11	43.58127840002999	stim	480		4	ambiguous	ambiguous	1.0	preferred_right	600.0	30.0							53.201307700015604	0.06705149996560067
11	43.64832989999559	stim	481		4	ambiguous	ambiguous	1.0	preferred_right	600.0	30.0							53.268359199981205	0.06667520001064986
11	43.71500510000624	stim	482		4	ambiguous	ambiguous	1.0	preferred_right	600.0	30.0							53.335034399991855	0.06726009992416948
11	43.78226519993041	stim	483		4	ambiguous	ambiguous	1.0	preferred_right	600.0	30.0							53.402294499916025	0.06697620009072125
11	43.84924140002113	stim	484		4	ambiguous	ambiguous	1.0	preferred_right	600.0	30.0							53.469270700006746	0.06740069994702935
11	43.91664209996816	stim	485		4	ambiguous	ambiguous	1.0	preferred_right	600.0	30.0							53.536671399953775	0.06714449997525662
11	43.983786599943414	stim	486		4	ambiguous	ambiguous	1.0	preferred_right	600.0	30.0							53.60381589992903	0.06664129998534918
11	44.05042789992876	stim	487		4	ambiguous	ambiguous	1.0	preferred_right	600.0	30.0							53.67045719991438	0.06708320009056479
11	44.11751110001933	stim	488		4	ambiguous	ambiguous	1.0	preferred_right	600.0	30.0							53.737540400004946	0.06708860001526773
11	44.184599700034596	stim	489		4	ambiguous	ambiguous	1.0	preferred_right	600.0	30.0							53.80462900002021	0.06698459992185235
11	44.25158429995645	stim	490		4	ambiguous	ambiguous	1.0	preferred_right	600.0	30.0							53.871613599942066	0.06707049999386072
11	44.31865479995031	stim	491		4	ambiguous	ambiguous	1.0	preferred_right	600.0	30.0							53.93868409993593	0.06689210003241897
11	44.38554689998273	stim	492		4	ambiguous	ambiguous	1.0	preferred_right	600.0	30.0							54.005576199968345	0.06706529995426536
11	44.45261219993699	stim	493		4	ambiguous	ambiguous	1.0	preferred_right	600.0	30.0							54.07264149992261	0.06721830007154495
11	44.51983050000854	stim	494		4	ambiguous	ambiguous	1.0	preferred_right	600.0	30.0							54.139859799994156	0.06703169993124902
11	44.58686219993979	stim	495		4	ambiguous	ambiguous	1.0	preferred_right	600.0	30.0							54.206891499925405	0.06742119998671114
11	44.6542833999265	stim	496		4	ambiguous	ambiguous	1.0	preferred_right	600.0	30.0							54.274312699912116	0.06710860005114228
11	44.72139199997764	stim	497		4	ambiguous	ambiguous	1.0	preferred_right	600.0	30.0							54.34142129996326	0.06715230003464967
11	44.78854430001229	stim	498		4	ambiguous	ambiguous	1.0	preferred_right	600.0	30.0							54.40857359999791	0.06644630001392215
11	44.85499060002621	stim	499		4	ambiguous	ambiguous	1.0	preferred_right	600.0	30.0							54.47501990001183	0.06736260000616312
11	44.922353200032376	stim	500		4	ambiguous	ambiguous	1.0	preferred_right	600.0	30.0							54.54238250001799	0.06711449997965246
11	44.98946770001203	stim	501		4	ambiguous	ambiguous	1.0	preferred_right	600.0	30.0							54.609496999997646	0.06623829994350672
11	45.055705999955535	stim	502		4	ambiguous	ambiguous	1.0	preferred_right	600.0	30.0							54.67573529994115	0.06697970000095665
11	45.12268569995649	stim	503		4	ambiguous	ambiguous	1.0	preferred_right	600.0	30.0							54.74271499994211	0.0665022999746725
11	45.189187999931164	stim	504		4	ambiguous	ambiguous	1.0	preferred_right	600.0	30.0							54.80921729991678	0.06689470005221665
11	45.25608269998338	stim	505		4	ambiguous	ambiguous	1.0	preferred_right	600.0	30.0							54.876111999969	0.06670920003671199
11	45.32279190002009	stim	506		4	ambiguous	ambiguous	1.0	preferred_right	600.0	30.0							54.94282120000571	0.06703559996094555
11	45.38982749998104	stim	507		4	ambiguous	ambiguous	1.0	preferred_right	600.0	30.0							55.009856799966656	0.06648349994793534
11	45.456310999928974	stim	508		4	ambiguous	ambiguous	1.0	preferred_right	600.0	30.0							55.07634029991459	0.06673399999272078
11	45.523044999921694	stim	509		4	ambiguous	ambiguous	1.0	preferred_right	600.0	30.0							55.14307429990731	0.06665540009271353
11	45.58970040001441	stim	510		4	ambiguous	ambiguous	1.0	preferred_right	600.0	30.0							55.209729700000025	0.06687189999502152
11	45.65657230000943	stim	511		4	ambiguous	ambiguous	1.0	preferred_right	600.0	30.0							55.27660159999505	0.06676840002182871
11	45.72334070003126	stim	512		4	ambiguous	ambiguous	1.0	preferred_right	600.0	30.0							55.343370000016876	0.06653919990640134
11	45.78987989993766	stim	513		4	ambiguous	ambiguous	1.0	preferred_right	600.0	30.0							55.40990919992328	0.06670000008307397
11	45.85657990002073	stim	514		4	ambiguous	ambiguous	1.0	preferred_right	600.0	30.0							55.47660920000635	0.06687719991896302
11	45.9234570999397	stim	515		4	ambiguous	ambiguous	1.0	preferred_right	600.0	30.0							55.543486399925314	0.0669763000914827
11	45.99043340003118	stim	516		4	ambiguous	ambiguous	1.0	preferred_right	600.0	30.0							55.6104627000168	0.06677929998841137
11	46.05721270001959	stim	517		4	ambiguous	ambiguous	1.0	preferred_right	600.0	30.0							55.67724200000521	0.06700899999123067
11	46.12422170001082	stim	518		4	ambiguous	ambiguous	1.0	preferred_right	600.0	30.0							55.74425099999644	0.06727110000792891
11	46.19149280001875	stim	519		4	ambiguous	ambiguous	1.0	preferred_right	600.0	30.0							55.81152210000437	0.06707069999538362
11	46.258563500014134	stim	520		4	ambiguous	ambiguous	1.0	preferred_right	600.0	30.0							55.87859279999975	0.06688429997302592
11	46.32544779998716	stim	521		4	ambiguous	ambiguous	1.0	preferred_right	600.0	30.0							55.94547709997278	0.06689439993351698
11	46.39234219992068	stim	522		4	ambiguous	ambiguous	1.0	preferred_right	600.0	30.0							56.012371499906294	0.0667700000340119
11	46.45911219995469	stim	523		4	ambiguous	ambiguous	1.0	preferred_right	600.0	30.0							56.079141499940306	0.06722970004193485
11	46.52634189999662	stim	524		4	ambiguous	ambiguous	1.0	preferred_right	600.0	30.0							56.14637119998224	0.0664033000357449
11	46.59274520003237	stim	525		4	ambiguous	ambiguous	1.0	preferred_right	600.0	30.0							56.212774500017986	0.06715729995630682
11	46.659902499988675	stim	526		4	ambiguous	ambiguous	1.0	preferred_right	600.0	30.0							56.27993179997429	0.06684790004510432
11	46.72675040003378	stim	527		4	ambiguous	ambiguous	1.0	preferred_right	600.0	30.0							56.3467797000194	0.06685829989146441
11	46.793608699925244	stim	528		4	ambiguous	ambiguous	1.0	preferred_right	600.0	30.0							56.41363799991086	0.06672480003908277
11	46.86033349996433	stim	529		4	ambiguous	ambiguous	1.0	preferred_right	600.0	30.0							56.480362799949944	0.06660130003001541
11	46.92693479999434	stim	530		4	ambiguous	ambiguous	1.0	preferred_right	600.0	30.0							56.54696409997996	0.06672330002766103
11	46.993658100022	stim	531		4	ambiguous	ambiguous	1.0	preferred_right	600.0	30.0							56.61368740000762	0.06705309997778386
11	47.06071119999979	stim	532		4	ambiguous	ambiguous	1.0	preferred_right	600.0	30.0							56.680740499985404	0.06651339994277805
11	47.127224599942565	stim	533		4	ambiguous	ambiguous	1.0	preferred_right	600.0	30.0							56.74725389992818	0.0667466000886634
11	47.19397120003123	stim	534		4	ambiguous	ambiguous	1.0	preferred_right	600.0	30.0							56.814000500016846	0.0667543999152258
11	47.260725599946454	stim	535		4	ambiguous	ambiguous	1.0	preferred_right	600.0	30.0							56.88075489993207	0.06704440002795309
11	47.32776999997441	stim	536		4	ambiguous	ambiguous	1.0	preferred_right	600.0	30.0							56.947799299960025	0.069078000029549
11	47.396848000003956	stim	537		4	ambiguous	ambiguous	1.0	preferred_right	600.0	30.0							57.016877299989574	0.06420269992668182
11	47.46105069993064	stim	538		4	ambiguous	ambiguous	1.0	preferred_right	600.0	30.0							57.081079999916255	0.0666895000031218
11	47.52774019993376	stim	539		4	ambiguous	ambiguous	1.0	preferred_right	600.0	30.0							57.14776949991938	0.06960180005989969
11	47.59734199999366	stim	540		4	ambiguous	ambiguous	1.0	preferred_right	600.0	30.0							57.21737129997928	0.06661979993805289
11	47.66396179993171	stim	541		4	ambiguous	ambiguous	1.0	preferred_right	600.0	30.0							57.28399109991733	0.0671165999956429
11	47.731078399927355	stim	542		4	ambiguous	ambiguous	1.0	preferred_right	600.0	30.0							57.35110769991297	0.06598210008814931
11	47.797060500015505	stim	543		4	ambiguous	ambiguous	1.0	preferred_right	600.0	30.0							57.41708980000112	0.06661139999050647
11	47.86367190000601	stim	544		4	ambiguous	ambiguous	1.0	preferred_right	600.0	30.0							57.48370119999163	0.0667238999158144
11	47.930395799921826	stim	545		4	ambiguous	ambiguous	1.0	preferred_right	600.0	30.0							57.55042509990744	0.06671540008392185
11	47.99711120000575	stim	546		4	ambiguous	ambiguous	1.0	preferred_right	600.0	30.0							57.617140499991365	0.06668739998713136
11	48.06379859999288	stim	547		4	ambiguous	ambiguous	1.0	preferred_right	600.0	30.0							57.683827899978496	0.06717619998380542
11	48.130974799976684	stim	548		4	ambiguous	ambiguous	1.0	preferred_right	600.0	30.0							57.7510040999623	0.0670655999565497
11	48.198040399933234	stim	549		4	ambiguous	ambiguous	1.0	preferred_right	600.0	30.0							57.81806969991885	0.06693130009807646
11	48.26497170003131	stim	550		4	ambiguous	ambiguous	1.0	preferred_right	600.0	30.0							57.88500100001693	0.0670582999009639
11	48.332029999932274	stim	551		4	ambiguous	ambiguous	1.0	preferred_right	600.0	30.0							57.95205929991789	0.0673660000320524
11	48.39939599996433	stim	552		4	ambiguous	ambiguous	1.0	preferred_right	600.0	30.0							58.019425299949944	0.06793490005657077
11	48.4673309000209	stim	553		4	ambiguous	ambiguous	1.0	preferred_right	600.0	30.0							58.087360200006515	0.06730059999972582
11	48.53463150002062	stim	554		4	ambiguous	ambiguous	1.0	preferred_right	600.0	30.0							58.15466080000624	0.06707809993531555
11	48.60170959995594	stim	555		4	ambiguous	ambiguous	1.0	preferred_right	600.0	30.0							58.221738899941556	0.06684820004738867
11	48.66855780000333	stim	556		4	ambiguous	ambiguous	1.0	preferred_right	600.0	30.0							58.288587099988945	0.06727879995014518
11	48.73583659995347	stim	557		4	ambiguous	ambiguous	1.0	preferred_right	600.0	30.0							58.35586589993909	0.06736069999169558
11	48.80319729994517	stim	558		4	ambiguous	ambiguous	1.0	preferred_right	600.0	30.0							58.423226599930786	0.0668206000700593
11	48.87001790001523	stim	559		4	ambiguous	ambiguous	1.0	preferred_right	600.0	30.0							58.490047200000845	0.06650379998609424
11	48.93652170000132	stim	560		4	ambiguous	ambiguous	1.0	preferred_right	600.0	30.0							58.55655099998694	0.06699710001703352
11	49.003518800018355	stim	561		4	ambiguous	ambiguous	1.0	preferred_right	600.0	30.0							58.62354810000397	0.06674649997148663
11	49.07026529998984	stim	562		4	ambiguous	ambiguous	1.0	preferred_right	600.0	30.0							58.69029459997546	0.06691439996939152
11	49.13717969995923	stim	563		4	ambiguous	ambiguous	1.0	preferred_right	600.0	30.0							58.75720899994485	0.06738010002300143
11	49.204559799982235	stim	564		4	ambiguous	ambiguous	1.0	preferred_right	600.0	30.0							58.82458909996785	0.06677879998460412
11	49.27133859996684	stim	565		4	ambiguous	ambiguous	1.0	preferred_right	600.0	30.0							58.891367899952456	0.0670308000408113
11	49.33836940000765	stim	566		4	ambiguous	ambiguous	1.0	preferred_right	600.0	30.0							58.95839869999327	0.06692549993749708
11	49.40529489994515	stim	567		4	ambiguous	ambiguous	1.0	preferred_right	600.0	30.0							59.025324199930765	0.06687129999045283
11	49.4721661999356	stim	568		4	ambiguous	ambiguous	1.0	preferred_right	600.0	30.0							59.09219549992122	0.06712150003295392
11	49.539287699968554	stim	569		4	ambiguous	ambiguous	1.0	preferred_right	600.0	30.0							59.15931699995417	0.06686080002691597
11	49.60614849999547	stim	570		4	ambiguous	ambiguous	1.0	preferred_right	600.0	30.0							59.22617779998109	0.0671086999354884
11	49.67325719993096	stim	571		4	ambiguous	ambiguous	1.0	preferred_right	600.0	30.0							59.293286499916576	0.06716189999133348
11	49.74041909992229	stim	572		4	ambiguous	ambiguous	1.0	preferred_right	600.0	30.0							59.36044839990791	0.06622970011085272
11	49.806648800033145	stim	573		4	ambiguous	ambiguous	1.0	preferred_right	600.0	30.0							59.42667810001876	0.06690669991075993
11	49.873555499943905	stim	574		4	ambiguous	ambiguous	1.0	preferred_right	600.0	30.0							59.49358479992952	0.06674759997986257
11	49.94030309992377	stim	575		4	ambiguous	ambiguous	1.0	preferred_right	600.0	30.0							59.560332399909385	0.06670160009525716
11	50.007004700019024	stim	576		4	ambiguous	ambiguous	1.0	preferred_right	600.0	30.0							59.62703400000464	0.0668982999632135
11	50.07390299998224	stim	577		4	ambiguous	ambiguous	1.0	preferred_right	600.0	30.0							59.693932299967855	0.06662459997460246
11	50.14052759995684	stim	578		4	ambiguous	ambiguous	1.0	preferred_right	600.0	30.0							59.76055689994246	0.06662349996622652
11	50.20715109992307	stim	579		4	ambiguous	ambiguous	1.0	preferred_right	600.0	30.0							59.827180399908684	0.06674650008790195
11	50.27389760001097	stim	580		4	ambiguous	ambiguous	1.0	preferred_right	600.0	30.0							59.893926899996586	0.06667969992849976
11	50.34057729993947	stim	581		4	ambiguous	ambiguous	1.0	preferred_right	600.0	30.0							59.960606599925086	0.06719550001434982
11	50.40777279995382	stim	582		4	ambiguous	ambiguous	1.0	preferred_right	600.0	30.0							60.027802099939436	0.06674380006734282
11	50.47451660002116	stim	583		4	ambiguous	ambiguous	1.0	preferred_right	600.0	30.0							60.09454590000678	0.0667309999698773
11	50.54124759999104	stim	584		4	ambiguous	ambiguous	1.0	preferred_right	600.0	30.0							60.161276899976656	0.06667830003425479
11	50.60792590002529	stim	585		4	ambiguous	ambiguous	1.0	preferred_right	600.0	30.0							60.22795520001091	0.0672572999028489
11	50.67518319992814	stim	586		4	ambiguous	ambiguous	1.0	preferred_right	600.0	30.0							60.29521249991376	0.06682340009137988
11	50.74200660001952	stim	587		4	ambiguous	ambiguous	1.0	preferred_right	600.0	30.0							60.36203590000514	0.067004399956204
11	50.809010999975726	stim	588		4	ambiguous	ambiguous	1.0	preferred_right	600.0	30.0							60.42904029996134	0.06667099997866899
11	50.875681999954395	stim	589		4	ambiguous	ambiguous	1.0	preferred_right	600.0	30.0							60.49571129994001	0.06707049999386072
11	50.942752499948256	stim	590		4	ambiguous	ambiguous	1.0	preferred_right	600.0	30.0							60.56278179993387	0.06692300003487617
11	51.00967549998313	stim	591		4	ambiguous	ambiguous	1.0	preferred_right	600.0	30.0							60.62970479996875	0.06665109994355589
11	51.07632659992669	stim	592		4	ambiguous	ambiguous	1.0	preferred_right	600.0	30.0							60.696355899912305	0.06679660000372678
11	51.143123199930415	stim	593		4	ambiguous	ambiguous	1.0	preferred_right	600.0	30.0							60.76315249991603	0.06658530002459884
11	51.20970849995501	stim	594		4	ambiguous	ambiguous	1.0	preferred_right	600.0	30.0							60.82973779994063	0.06663260003551841
11	51.27634109999053	stim	595		4	ambiguous	ambiguous	1.0	preferred_right	600.0	30.0							60.89637039997615	0.06713560002390295
11	51.343476700014435	stim	596		4	ambiguous	ambiguous	1.0	preferred_right	600.0	30.0							60.96350600000005	0.06667989993002266
11	51.41015659994446	stim	597		4	ambiguous	ambiguous	1.0	preferred_right	600.0	30.0							61.030185899930075	0.06705000007059425
11	51.47720660001505	stim	598		4	ambiguous	ambiguous	1.0	preferred_right	600.0	30.0							61.09723590000067	0.06685129995457828
11	51.54405789996963	stim	599		4	ambiguous	ambiguous	1.0	preferred_right	600.0	30.0							61.16408719995525	0.06686510005965829
12	51.61092300002929	stim	0		600	ambiguous	break	1.0	preferred_right	1.0	0.0							61.230952300014906	10.014959799940698
13	61.625882799969986	stim	0		4	unambiguous	left	1.0	preferred_right	139.0	190.0							71.2459120999556	0.06670359999407083
13	61.69258639996406	stim	1		4	unambiguous	left	1.0	preferred_right	139.0	190.0							71.31261569994967	0.06714010005816817
13	61.759726500022225	stim	2		4	unambiguous	left	1.0	preferred_right	139.0	190.0							71.37975580000784	0.06622209993656725
13	61.82594859995879	stim	3		4	unambiguous	left	1.0	preferred_right	139.0	190.0							71.44597789994441	0.06707160000223666
13	61.89302019996103	stim	4		4	unambiguous	left	1.0	preferred_right	139.0	190.0							71.51304949994665	0.06733610003720969
13	61.96035629999824	stim	5		4	unambiguous	left	1.0	preferred_right	139.0	190.0							71.58038559998386	0.06694699998479337
13	62.02730329998303	stim	6		4	unambiguous	left	1.0	preferred_right	139.0	190.0							71.64733259996865	0.06700239994097501
13	62.09430569992401	stim	7		4	unambiguous	left	1.0	preferred_right	139.0	190.0							71.71433499990962	0.06913570000324398
13	62.16344139992725	stim	8		4	unambiguous	left	1.0	preferred_right	139.0	190.0							71.78347069991287	0.06656420009676367
13	62.230005600024015	stim	9		4	unambiguous	left	1.0	preferred_right	139.0	190.0							71.85003490000963	0.0666614999063313
13	62.296667099930346	stim	10		4	unambiguous	left	1.0	preferred_right	139.0	190.0							71.91669639991596	0.06684870005119592
13	62.36351579998154	stim	11		4	unambiguous	left	1.0	preferred_right	139.0	190.0							71.98354509996716	0.0664783000247553
13	62.4299941000063	stim	12		4	unambiguous	left	1.0	preferred_right	139.0	190.0							72.05002339999191	0.06671499996446073
13	62.49670909997076	stim	13		4	unambiguous	left	1.0	preferred_right	139.0	190.0							72.11673839995638	0.06665910000447184
13	62.56336819997523	stim	14		4	unambiguous	left	1.0	preferred_right	139.0	190.0							72.18339749996085	0.06697899999562651
13	62.630347199970856	stim	15		4	unambiguous	left	1.0	preferred_right	139.0	190.0							72.25037649995647	0.06653660000301898
13	62.696883799973875	stim	16		4	unambiguous	left	1.0	preferred_right	139.0	190.0							72.31691309995949	0.06773719994816929
13	62.764620999922045	stim	17		4	unambiguous	left	1.0	preferred_right	139.0	190.0							72.38465029990766	0.06557710003107786
13	62.83019809995312	stim	18		4	unambiguous	left	1.0	preferred_right	139.0	190.0							72.45022739993874	0.0673024000134319
13	62.897500499966554	stim	19		4	unambiguous	left	1.0	preferred_right	139.0	190.0							72.51752979995217	0.06681930006016046
13	62.964319800026715	stim	20		4	unambiguous	left	1.0	preferred_right	139.0	190.0							72.58434910001233	0.06693380000069737
13	63.03125360002741	stim	21		4	unambiguous	left	1.0	preferred_right	139.0	190.0							72.65128290001303	0.0674558999016881
13	63.0987094999291	stim	22		4	unambiguous	left	1.0	preferred_right	139.0	190.0							72.71873879991472	0.06640250002965331
13	63.165111999958754	stim	23		4	unambiguous	left	1.0	preferred_right	139.0	190.0							72.78514129994437	0.06715710007119924
13	63.23226910002995	stim	24		4	unambiguous	left	1.0	preferred_right	139.0	190.0							72.85229840001557	0.06648479995783418
13	63.29875389998779	stim	25		4	unambiguous	left	1.0	preferred_right	139.0	190.0							72.9187831999734	0.0676190999802202
13	63.36637299996801	stim	26		4	unambiguous	left	1.0	preferred_right	139.0	190.0							72.98640229995362	0.06652760005090386
13	63.43290060001891	stim	27		4	unambiguous	left	1.0	preferred_right	139.0	190.0							73.05292990000453	0.06698339991271496
13	63.499883999931626	stim	28		4	unambiguous	left	1.0	preferred_right	139.0	190.0							73.11991329991724	0.06744470004923642
13	63.56732869998086	stim	29		4	unambiguous	left	1.0	preferred_right	139.0	190.0							73.18735799996648	0.06670620001386851
13	63.63403489999473	stim	30		4	unambiguous	left	1.0	preferred_right	139.0	190.0							73.25406419998035	0.0674627999542281
13	63.70149769994896	stim	31		4	unambiguous	left	1.0	preferred_right	139.0	190.0							73.32152699993458	0.06763349997345358
13	63.76913119992241	stim	32		4	unambiguous	left	1.0	preferred_right	139.0	190.0							73.38916049990803	0.06585860007908195
13	63.834989800001495	stim	33		4	unambiguous	left	1.0	preferred_right	139.0	190.0							73.45501909998711	0.06727549992501736
13	63.90226529992651	stim	34		4	unambiguous	left	1.0	preferred_right	139.0	190.0							73.52229459991213	0.06675410002935678
13	63.96901939995587	stim	35		4	unambiguous	left	1.0	preferred_right	139.0	190.0							73.58904869994149	0.06652530003339052
13	64.03554469998926	stim	36		4	unambiguous	left	1.0	preferred_right	139.0	190.0							73.65557399997488	0.06666040001437068
13	64.10220510000363	stim	37		4	unambiguous	left	1.0	preferred_right	139.0	190.0							73.72223439998925	0.06671259994618595
13	64.16891769994982	stim	38		4	unambiguous	left	1.0	preferred_right	139.0	190.0							73.78894699993543	0.06662399997003376
13	64.23554169991985	stim	39		4	unambiguous	left	1.0	preferred_right	139.0	190.0							73.85557099990547	0.06707480002660304
13	64.30261649994645	stim	40		4	unambiguous	left	1.0	preferred_right	139.0	190.0							73.92264579993207	0.06709540006704628
13	64.3697119000135	stim	41		4	unambiguous	left	1.0	preferred_right	139.0	190.0							73.98974119999912	0.06708169996272773
13	64.43679359997623	stim	42		4	unambiguous	left	1.0	preferred_right	139.0	190.0							74.05682289996184	0.06665159994736314
13	64.50344519992359	stim	43		4	unambiguous	left	1.0	preferred_right	139.0	190.0							74.12347449990921	0.06713560002390295
13	64.57058079994749	stim	44		4	unambiguous	left	1.0	preferred_right	139.0	190.0							74.19061009993311	0.06695770006626844
13	64.63753850001376	stim	45		4	unambiguous	left	1.0	preferred_right	139.0	190.0							74.25756779999938	0.06716380000580102
13	64.70470230001956	stim	46		4	unambiguous	left	1.0	preferred_right	139.0	190.0							74.32473160000518	0.06668329995591193
13	64.77138559997547	stim	47		4	unambiguous	left	1.0	preferred_right	139.0	190.0							74.39141489996109	0.06698190001770854
13	64.83836749999318	stim	48		4	unambiguous	left	1.0	preferred_right	139.0	190.0							74.4583967999788	0.06695769994985312
13	64.90532519994304	stim	49		4	unambiguous	left	1.0	preferred_right	139.0	190.0							74.52535449992865	0.06682280008681118
13	64.97214800002985	stim	50		4	unambiguous	left	1.0	preferred_right	139.0	190.0							74.59217730001546	0.06670429999940097
13	65.03885230002925	stim	51		4	unambiguous	left	1.0	preferred_right	139.0	190.0							74.65888160001487	0.0672267999034375
13	65.10607909993269	stim	52		4	unambiguous	left	1.0	preferred_right	139.0	190.0							74.7261083999183	0.06710059999022633
13	65.17317969992291	stim	53		4	unambiguous	left	1.0	preferred_right	139.0	190.0							74.79320899990853	0.06679930002428591
13	65.2399789999472	stim	54		4	unambiguous	left	1.0	preferred_right	139.0	190.0							74.86000829993282	0.06731289997696877
13	65.30729189992417	stim	55		4	unambiguous	left	1.0	preferred_right	139.0	190.0							74.92732119990978	0.06667390000075102
13	65.37396579992492	stim	56		4	unambiguous	left	1.0	preferred_right	139.0	190.0							74.99399509991053	0.0669987000292167
13	65.44096449995413	stim	57		4	unambiguous	left	1.0	preferred_right	139.0	190.0							75.06099379993975	0.0668625000398606
13	65.507826999994	stim	58		4	unambiguous	left	1.0	preferred_right	139.0	190.0							75.12785629997961	0.06692260003183037
13	65.57474960002583	stim	59		4	unambiguous	left	1.0	preferred_right	139.0	190.0							75.19477890001144	0.06669589993543923
13	65.64144549996126	stim	60		4	unambiguous	left	1.0	preferred_right	139.0	190.0							75.26147479994688	0.06703420006670058
13	65.70847970002797	stim	61		4	unambiguous	left	1.0	preferred_right	139.0	190.0							75.32850900001358	0.06716330000199378
13	65.77564300002996	stim	62		4	unambiguous	left	1.0	preferred_right	139.0	190.0							75.39567230001558	0.06674309994559735
13	65.84238609997556	stim	63		4	unambiguous	left	1.0	preferred_right	139.0	190.0							75.46241539996117	0.06710099999327213
13	65.90948709996883	stim	64		4	unambiguous	left	1.0	preferred_right	139.0	190.0							75.52951639995445	0.06675979995634407
13	65.97624689992517	stim	65		4	unambiguous	left	1.0	preferred_right	139.0	190.0							75.59627619991079	0.06690239999443293
13	66.0431492999196	stim	66		4	unambiguous	left	1.0	preferred_right	139.0	190.0							75.66317859990522	0.06676640000659972
13	66.1099156999262	stim	67		4	unambiguous	left	1.0	preferred_right	139.0	190.0							75.72994499991182	0.0665836000116542
13	66.17649929993786	stim	68		4	unambiguous	left	1.0	preferred_right	139.0	190.0							75.79652859992348	0.06803359999321401
13	66.24453289993107	stim	69		4	unambiguous	left	1.0	preferred_right	139.0	190.0							75.86456219991669	0.0824458000715822
13	66.32697870000266	stim	70		4	unambiguous	left	1.0	preferred_right	139.0	190.0							75.94700799998827	0.06954519997816533
13	66.39652389998082	stim	71		4	unambiguous	left	1.0	preferred_right	139.0	190.0							76.01655319996644	0.06464809994213283
13	66.46117199992295	stim	72		4	unambiguous	left	1.0	preferred_right	139.0	190.0							76.08120129990857	0.08336710010189563
13	66.54453910002485	stim	73		4	unambiguous	left	1.0	preferred_right	139.0	190.0							76.16456840001047	0.06891049991827458
13	66.61344959994312	stim	74		4	unambiguous	left	1.0	preferred_right	139.0	190.0							76.23347889992874	0.0665913000702858
13	66.68004090001341	stim	75		4	unambiguous	left	1.0	preferred_right	139.0	190.0							76.30007019999903	0.06824349996168166
13	66.74828439997509	stim	76		4	unambiguous	left	1.0	preferred_right	139.0	190.0							76.36831369996071	0.08239370002411306
13	66.8306780999992	stim	77		4	unambiguous	left	1.0	preferred_right	139.0	190.0							76.45070739998482	0.06719570001587272
13	66.89787380001508	stim	78		4	unambiguous	left	1.0	preferred_right	139.0	190.0							76.5179031000007	0.08201259991619736
13	66.97988639993127	stim	79		4	unambiguous	left	1.0	preferred_right	139.0	190.0							76.59991569991689	0.06689050002023578
13	67.04677689995151	stim	80		4	unambiguous	left	1.0	preferred_right	139.0	190.0							76.66680619993713	0.06647189997602254
13	67.11324879992753	stim	81		4	unambiguous	left	1.0	preferred_right	139.0	190.0							76.73327809991315	0.0674345000879839
13	67.18068330001552	stim	82		4	unambiguous	left	1.0	preferred_right	139.0	190.0							76.80071260000113	0.06711199996061623
13	67.24779529997613	stim	83		4	unambiguous	left	1.0	preferred_right	139.0	190.0							76.86782459996175	0.06693500000983477
13	67.31473029998597	stim	84		4	unambiguous	left	1.0	preferred_right	139.0	190.0							76.93475959997158	0.0673784000100568
13	67.38210869999602	stim	85		4	unambiguous	left	1.0	preferred_right	139.0	190.0							77.00213799998164	0.06665459997020662
13	67.44876329996623	stim	86		4	unambiguous	left	1.0	preferred_right	139.0	190.0							77.06879259995185	0.06721640005707741
13	67.51597970002331	stim	87		4	unambiguous	left	1.0	preferred_right	139.0	190.0							77.13600900000893	0.08312399999704212
13	67.59910370002035	stim	88		4	unambiguous	left	1.0	preferred_right	139.0	190.0							77.21913300000597	0.06707999994978309
13	67.66618369997013	stim	89		4	unambiguous	left	1.0	preferred_right	139.0	190.0							77.28621299995575	0.06747949996497482
13	67.73366319993511	stim	90		4	unambiguous	left	1.0	preferred_right	139.0	190.0							77.35369249992073	0.06616719998419285
13	67.7998303999193	stim	91		4	unambiguous	left	1.0	preferred_right	139.0	190.0							77.41985969990492	0.06710720004048198
13	67.86693759995978	stim	92		4	unambiguous	left	1.0	preferred_right	139.0	190.0							77.4869668999454	0.06668190006166697
13	67.93361950002145	stim	93		4	unambiguous	left	1.0	preferred_right	139.0	190.0							77.55364880000707	0.06668239994905889
13	68.00030189997051	stim	94		4	unambiguous	left	1.0	preferred_right	139.0	190.0							77.62033119995613	0.06671080004889518
13	68.0670127000194	stim	95		4	unambiguous	left	1.0	preferred_right	139.0	190.0							77.68704200000502	0.06679790001362562
13	68.13381060003303	stim	96		4	unambiguous	left	1.0	preferred_right	139.0	190.0							77.75383990001865	0.06762419990263879
13	68.20143479993567	stim	97		4	unambiguous	left	1.0	preferred_right	139.0	190.0							77.82146409992129	0.0669488999992609
13	68.26838369993493	stim	98		4	unambiguous	left	1.0	preferred_right	139.0	190.0							77.88841299992055	0.06690520001575351
13	68.33528889995068	stim	99		4	unambiguous	left	1.0	preferred_right	139.0	190.0							77.9553181999363	0.0666844000807032
13	68.40197330003139	stim	100		4	unambiguous	left	1.0	preferred_right	139.0	190.0							78.022002600017	0.06673389999195933
13	68.46870720002335	stim	101		4	unambiguous	left	1.0	preferred_right	139.0	190.0							78.08873650000896	0.06710719992406666
13	68.53581439994741	stim	102		4	unambiguous	left	1.0	preferred_right	139.0	190.0							78.15584369993303	0.06657790008466691
13	68.60239230003208	stim	103		4	unambiguous	left	1.0	preferred_right	139.0	190.0							78.2224216000177	0.0667665998917073
13	68.66915889992379	stim	104		4	unambiguous	left	1.0	preferred_right	139.0	190.0							78.2891881999094	0.06714370008558035
13	68.73630260000937	stim	105		4	unambiguous	left	1.0	preferred_right	139.0	190.0							78.35633189999498	0.06667420000303537
13	68.8029768000124	stim	106		4	unambiguous	left	1.0	preferred_right	139.0	190.0							78.42300609999802	0.06712959997821599
13	68.87010639999062	stim	107		4	unambiguous	left	1.0	preferred_right	139.0	190.0							78.49013569997624	0.06626430002506822
13	68.93637070001569	stim	108		4	unambiguous	left	1.0	preferred_right	139.0	190.0							78.5564000000013	0.06672679993789643
13	69.00309749995358	stim	109		4	unambiguous	left	1.0	preferred_right	139.0	190.0							78.6231267999392	0.06707610003650188
13	69.07017359999008	stim	110		4	unambiguous	left	1.0	preferred_right	139.0	190.0							78.6902028999757	0.06661590002477169
13	69.13678950001486	stim	111		4	unambiguous	left	1.0	preferred_right	139.0	190.0							78.75681880000047	0.06664590002037585
13	69.20343540003523	stim	112		4	unambiguous	left	1.0	preferred_right	139.0	190.0							78.82346470002085	0.06669149990193546
13	69.27012689993717	stim	113		4	unambiguous	left	1.0	preferred_right	139.0	190.0							78.89015619992279	0.06666240002959967
13	69.33678929996677	stim	114		4	unambiguous	left	1.0	preferred_right	139.0	190.0							78.95681859995238	0.06706979998853058
13	69.4038590999553	stim	115		4	unambiguous	left	1.0	preferred_right	139.0	190.0							79.02388839994092	0.06729789997916669
13	69.47115699993446	stim	116		4	unambiguous	left	1.0	preferred_right	139.0	190.0							79.09118629992008	0.06684910005424172
13	69.5380060999887	stim	117		4	unambiguous	left	1.0	preferred_right	139.0	190.0							79.15803539997432	0.06698380003217608
13	69.60498990002088	stim	118		4	unambiguous	left	1.0	preferred_right	139.0	190.0							79.2250192000065	0.06745420000515878
13	69.67244410002604	stim	119		4	unambiguous	left	1.0	preferred_right	139.0	190.0							79.29247340001166	0.06657449994236231
13	69.7390185999684	stim	120		4	unambiguous	left	1.0	preferred_right	139.0	190.0							79.35904789995402	0.06726629997137934
13	69.80628489993978	stim	121		4	unambiguous	left	1.0	preferred_right	139.0	190.0							79.4263141999254	0.06671909999568015
13	69.87300399993546	stim	122		4	unambiguous	left	1.0	preferred_right	139.0	190.0							79.49303329992108	0.06650429998990148
13	69.93950829992536	stim	123		4	unambiguous	left	1.0	preferred_right	139.0	190.0							79.55953759991098	0.06675600004382432
13	70.00626429996919	stim	124		4	unambiguous	left	1.0	preferred_right	139.0	190.0							79.6262935999548	0.0671556000597775
13	70.07341990002897	stim	125		4	unambiguous	left	1.0	preferred_right	139.0	190.0							79.69344920001458	0.06676049996167421
13	70.14018039999064	stim	126		4	unambiguous	left	1.0	preferred_right	139.0	190.0							79.76020969997626	0.06662699999287724
13	70.20680739998352	stim	127		4	unambiguous	left	1.0	preferred_right	139.0	190.0							79.82683669996914	0.06661959993653
13	70.27342699992005	stim	128		4	unambiguous	left	1.0	preferred_right	139.0	190.0							79.89345629990567	0.06668830011039972
13	70.34011530003045	stim	129		4	unambiguous	left	1.0	preferred_right	139.0	190.0							79.96014460001606	0.0666620999109
13	70.40677739994135	stim	130		4	unambiguous	left	1.0	preferred_right	139.0	190.0							80.02680669992696	0.06692230002954602
13	70.4736996999709	stim	131		4	unambiguous	left	1.0	preferred_right	139.0	190.0							80.09372899995651	0.066856799996458
13	70.54055649996735	stim	132		4	unambiguous	left	1.0	preferred_right	139.0	190.0							80.16058579995297	0.06644790002610534
13	70.60700439999346	stim	133		4	unambiguous	left	1.0	preferred_right	139.0	190.0							80.22703369997907	0.0667084000306204
13	70.67371280002408	stim	134		4	unambiguous	left	1.0	preferred_right	139.0	190.0							80.2937421000097	0.06662049994338304
13	70.74033329996746	stim	135		4	unambiguous	left	1.0	preferred_right	139.0	190.0							80.36036259995308	0.06694260006770492
13	70.80727590003517	stim	136		4	unambiguous	left	1.0	preferred_right	139.0	190.0							80.42730520002078	0.06641669990494847
13	70.87369259994011	stim	137		4	unambiguous	left	1.0	preferred_right	139.0	190.0							80.49372189992573	0.06673700001556426
13	70.94042959995568	stim	138		4	unambiguous	left	1.0	preferred_right	139.0	190.0							80.5604588999413	0.06659389997366816
14	71.00702349992935	stim	0		4	unambiguous	right	1.0	preferred_right	139.0	51.0							80.62705279991496	0.06670010008383542
14	71.07372360001318	stim	1		4	unambiguous	right	1.0	preferred_right	139.0	51.0							80.6937528999988	0.06673770002089441
14	71.14046130003408	stim	2		4	unambiguous	right	1.0	preferred_right	139.0	51.0							80.7604906000197	0.06656959990505129
14	71.20703089993913	stim	3		4	unambiguous	right	1.0	preferred_right	139.0	51.0							80.82706019992474	0.06678880006074905
14	71.27381969999988	stim	4		4	unambiguous	right	1.0	preferred_right	139.0	51.0							80.8938489999855	0.06721549993380904
14	71.34103519993369	stim	5		4	unambiguous	right	1.0	preferred_right	139.0	51.0							80.9610644999193	0.0680348000023514
14	71.40906999993604	stim	6		4	unambiguous	right	1.0	preferred_right	139.0	51.0							81.02909929992165	0.06554069998674095
14	71.47461069992278	stim	7		4	unambiguous	right	1.0	preferred_right	139.0	51.0							81.0946399999084	0.06705410010181367
14	71.54166480002459	stim	8		4	unambiguous	right	1.0	preferred_right	139.0	51.0							81.16169410001021	0.06672659993637353
14	71.60839139996096	stim	9		4	unambiguous	right	1.0	preferred_right	139.0	51.0							81.22842069994658	0.06688970001414418
14	71.67528109997511	stim	10		4	unambiguous	right	1.0	preferred_right	139.0	51.0							81.29531039996073	0.06684860005043447
14	71.74212970002554	stim	11		4	unambiguous	right	1.0	preferred_right	139.0	51.0							81.36215900001116	0.06664659990929067
14	71.80877629993483	stim	12		4	unambiguous	right	1.0	preferred_right	139.0	51.0							81.42880559992045	0.06661560002248734
14	71.87539189995732	stim	13		4	unambiguous	right	1.0	preferred_right	139.0	51.0							81.49542119994294	0.066689100000076
14	71.9420809999574	stim	14		4	unambiguous	right	1.0	preferred_right	139.0	51.0							81.56211029994301	0.06706040003336966
14	72.00914139999077	stim	15		4	unambiguous	right	1.0	preferred_right	139.0	51.0							81.62917069997638	0.06686639995314181
14	72.07600779994391	stim	16		4	unambiguous	right	1.0	preferred_right	139.0	51.0							81.69603709992953	0.06692140002269298
14	72.1429291999666	stim	17		4	unambiguous	right	1.0	preferred_right	139.0	51.0							81.76295849995222	0.06674889998976141
14	72.20967809995636	stim	18		4	unambiguous	right	1.0	preferred_right	139.0	51.0							81.82970739994198	0.06691829999908805
14	72.27659639995545	stim	19		4	unambiguous	right	1.0	preferred_right	139.0	51.0							81.89662569994107	0.06669410003814846
14	72.3432904999936	stim	20		4	unambiguous	right	1.0	preferred_right	139.0	51.0							81.96331979997922	0.07031530002132058
14	72.41360580001492	stim	21		4	unambiguous	right	1.0	preferred_right	139.0	51.0							82.03363510000054	0.06639709998853505
14	72.48000290000346	stim	22		4	unambiguous	right	1.0	preferred_right	139.0	51.0							82.10003219998907	0.06657399993855506
14	72.54657689994201	stim	23		4	unambiguous	right	1.0	preferred_right	139.0	51.0							82.16660619992763	0.06676279997918755
14	72.6133396999212	stim	24		4	unambiguous	right	1.0	preferred_right	139.0	51.0							82.23336899990682	0.06643290002830327
14	72.6797725999495	stim	25		4	unambiguous	right	1.0	preferred_right	139.0	51.0							82.29980189993512	0.06668270006775856
14	72.74645530001726	stim	26		4	unambiguous	right	1.0	preferred_right	139.0	51.0							82.36648460000288	0.06672529992647469
14	72.81318059994373	stim	27		4	unambiguous	right	1.0	preferred_right	139.0	51.0							82.43320989992935	0.06665619998238981
14	72.87983679992612	stim	28		4	unambiguous	right	1.0	preferred_right	139.0	51.0							82.49986609991174	0.06677600007969886
14	72.94661280000582	stim	29		4	unambiguous	right	1.0	preferred_right	139.0	51.0							82.56664209999144	0.06695250002667308
14	73.0135653000325	stim	30		4	unambiguous	right	1.0	preferred_right	139.0	51.0							82.63359460001811	0.06706779997330159
14	73.0806331000058	stim	31		4	unambiguous	right	1.0	preferred_right	139.0	51.0							82.70066239999142	0.06718899996485561
14	73.14782209997065	stim	32		4	unambiguous	right	1.0	preferred_right	139.0	51.0							82.76785139995627	0.06746739998925477
14	73.21528949995991	stim	33		4	unambiguous	right	1.0	preferred_right	139.0	51.0							82.83531879994553	0.06722440000157803
14	73.28251389996149	stim	34		4	unambiguous	right	1.0	preferred_right	139.0	51.0							82.9025431999471	0.0666763000190258
14	73.34919019998051	stim	35		4	unambiguous	right	1.0	preferred_right	139.0	51.0							82.96921949996613	0.06718360004015267
14	73.41637380002066	stim	36		4	unambiguous	right	1.0	preferred_right	139.0	51.0							83.03640310000628	0.06668399996124208
14	73.4830577999819	stim	37		4	unambiguous	right	1.0	preferred_right	139.0	51.0							83.10308709996752	0.06663819996174425
14	73.54969599994365	stim	38		4	unambiguous	right	1.0	preferred_right	139.0	51.0							83.16972529992927	0.06713370000943542
