trial_nr	onset	event_type	phase	response	nr_frames	block_type	trial_type	response_hand	phase_length	last_frame	key_duration	onset_abs	duration
0	0.01957670005504042	stim	0		0	break	break	preferred	1.0	0.0		4.461076300009154	2.9158276999369264
0	2.935404399991967	break	0	space	0	break	break	preferred	1.0	0.0	0.12143279996234924	7.37690399994608	0.3745043999515474
0	3.309908799943514	break	0	space	599	break	break	preferred	1.0	0.0	0.0701533000683412	7.7514083998976275	6.762704600114375
1	10.07261340005789	stim	0		2	ambiguous	ambiguous	preferred	600.0	30.0		14.514113000012003	0.033401799970306456
1	10.106015200028196	stim	1		2	ambiguous	ambiguous	preferred	600.0	30.0		14.54751479998231	0.033382699941284955
1	10.139397899969481	stim	2		2	ambiguous	ambiguous	preferred	600.0	30.0		14.580897499923594	0.04691220005042851
1	10.18631010001991	stim	3		2	ambiguous	ambiguous	preferred	600.0	30.0		14.627809699974023	0.03356030001305044
1	10.21987040003296	stim	4		2	ambiguous	ambiguous	preferred	600.0	30.0		14.661369999987073	0.03622329991776496
1	10.256093699950725	stim	5		2	ambiguous	ambiguous	preferred	600.0	30.0		14.697593299904838	0.03378699999302626
1	10.289880699943751	stim	6		2	ambiguous	ambiguous	preferred	600.0	30.0		14.731380299897864	0.03327700006775558
1	10.323157700011507	stim	7		2	ambiguous	ambiguous	preferred	600.0	30.0		14.76465729996562	0.033701200038194656
1	10.356858900049701	stim	8		2	ambiguous	ambiguous	preferred	600.0	30.0		14.798358500003815	0.04649419989436865
1	10.40335309994407	stim	9		2	ambiguous	ambiguous	preferred	600.0	30.0		14.844852699898183	0.03686400002334267
1	10.440217099967413	stim	10		2	ambiguous	ambiguous	preferred	600.0	30.0		14.881716699921526	0.032970100059174
1	10.473187200026587	stim	11		2	ambiguous	ambiguous	preferred	600.0	30.0		14.9146867999807	0.03339639992918819
1	10.506583599955775	stim	12		2	ambiguous	ambiguous	preferred	600.0	30.0		14.948083199909888	0.03328730002976954
1	10.539870899985544	stim	13		2	ambiguous	ambiguous	preferred	600.0	30.0		14.981370499939658	0.033682100009173155
1	10.573552999994718	stim	14		2	ambiguous	ambiguous	preferred	600.0	30.0		15.015052599948831	0.048635900020599365
1	10.622188900015317	stim	15		0	ambiguous	ambiguous	preferred	600.0	30.0		15.06368849996943	3.2302409999538213
1	13.852429899969138	ambiguous	15	space	2	ambiguous	ambiguous	preferred	600.0	30.0	0.07369180000387132	18.29392949992325	-3.179009999963455
1	10.673419900005683	stim	16		2	ambiguous	ambiguous	preferred	600.0	30.0		15.114919499959797	0.033290899940766394
1	10.70671079994645	stim	17		2	ambiguous	ambiguous	preferred	600.0	30.0		15.148210399900563	0.033415600075386465
1	10.740126400021836	stim	18		2	ambiguous	ambiguous	preferred	600.0	30.0		15.18162599997595	0.05036949994973838
1	10.790495899971575	stim	19		2	ambiguous	ambiguous	preferred	600.0	30.0		15.231995499925688	0.04850889998488128
1	10.839004799956456	stim	20		2	ambiguous	ambiguous	preferred	600.0	30.0		15.28050439991057	0.034479300025850534
1	10.873484099982306	stim	21		2	ambiguous	ambiguous	preferred	600.0	30.0		15.31498369993642	0.03324480005539954
1	10.906728900037706	stim	22		2	ambiguous	ambiguous	preferred	600.0	30.0		15.34822849999182	0.033329500001855195
1	10.940058400039561	stim	23		2	ambiguous	ambiguous	preferred	600.0	30.0		15.381557999993674	0.03344269993249327
1	10.973501099972054	stim	24		2	ambiguous	ambiguous	preferred	600.0	30.0		15.415000699926168	0.03182500007096678
1	11.005326100043021	stim	25		2	ambiguous	ambiguous	preferred	600.0	30.0		15.446825699997135	0.03382589993998408
1	11.039151999983005	stim	26		2	ambiguous	ambiguous	preferred	600.0	30.0		15.480651599937119	0.03305279999040067
1	11.072204799973406	stim	27		2	ambiguous	ambiguous	preferred	600.0	30.0		15.51370439992752	0.034480800037272274
1	11.106685600010678	stim	28		2	ambiguous	ambiguous	preferred	600.0	30.0		15.548185199964792	0.03338449995499104
1	11.14007009996567	stim	29		2	ambiguous	ambiguous	preferred	600.0	30.0		15.581569699919783	0.03329170006327331
1	11.173361800028943	stim	30		2	ambiguous	ambiguous	preferred	600.0	30.0		15.614861399983056	0.03331339999567717
1	11.20667520002462	stim	31		2	ambiguous	ambiguous	preferred	600.0	30.0		15.648174799978733	0.032246300019323826
1	11.238921500043944	stim	32		2	ambiguous	ambiguous	preferred	600.0	30.0		15.680421099998057	0.03362789994571358
1	11.272549399989657	stim	33		2	ambiguous	ambiguous	preferred	600.0	30.0		15.71404899994377	0.03411969996523112
1	11.306669099954888	stim	34		2	ambiguous	ambiguous	preferred	600.0	30.0		15.748168699909002	0.033308900077827275
1	11.339978000032715	stim	35		2	ambiguous	ambiguous	preferred	600.0	30.0		15.781477599986829	0.033446499961428344
1	11.373424499994144	stim	36		2	ambiguous	ambiguous	preferred	600.0	30.0		15.814924099948257	0.03338669997174293
1	11.406811199965887	stim	37		2	ambiguous	ambiguous	preferred	600.0	30.0		15.84831079992	0.031861099996604025
1	11.43867229996249	stim	38		2	ambiguous	ambiguous	preferred	600.0	30.0		15.880171899916604	0.033805200015194714
1	11.472477499977686	stim	39		2	ambiguous	ambiguous	preferred	600.0	30.0		15.913977099931799	0.03315130004193634
1	11.505628800019622	stim	40		2	ambiguous	ambiguous	preferred	600.0	30.0		15.947128399973735	0.03441059996839613
1	11.540039399988018	stim	41		2	ambiguous	ambiguous	preferred	600.0	30.0		15.981538999942131	0.033262499957345426
1	11.573301899945363	stim	42		2	ambiguous	ambiguous	preferred	600.0	30.0		16.014801499899477	0.03335240005981177
1	11.606654300005175	stim	43		2	ambiguous	ambiguous	preferred	600.0	30.0		16.04815389995929	0.03327270003501326
1	11.639927000040188	stim	44		2	ambiguous	ambiguous	preferred	600.0	30.0		16.081426599994302	0.03240209992509335
1	11.672329099965282	stim	45		2	ambiguous	ambiguous	preferred	600.0	30.0		16.113828699919395	0.03389010007958859
1	11.70621920004487	stim	46		2	ambiguous	ambiguous	preferred	600.0	30.0		16.147718799998984	0.03386749990750104
1	11.740086699952371	stim	47		2	ambiguous	ambiguous	preferred	600.0	30.0		16.181586299906485	0.032950400025583804
1	11.773037099977955	stim	48		2	ambiguous	ambiguous	preferred	600.0	30.0		16.21453669993207	0.03334960003849119
1	11.806386700016446	stim	49		2	ambiguous	ambiguous	preferred	600.0	30.0		16.24788629997056	0.03326950001064688
1	11.839656200027093	stim	50		2	ambiguous	ambiguous	preferred	600.0	30.0		16.281155799981207	0.03240099991671741
1	11.87205719994381	stim	51		2	ambiguous	ambiguous	preferred	600.0	30.0		16.313556799897924	0.033979900064878166
1	11.906037100008689	stim	52		2	ambiguous	ambiguous	preferred	600.0	30.0		16.347536699962802	0.033276099944487214
1	11.939313199953176	stim	53		2	ambiguous	ambiguous	preferred	600.0	30.0		16.38081279990729	0.03372900001704693
1	11.973042199970223	stim	54		0	ambiguous	ambiguous	preferred	600.0	30.0		16.414541799924336	3.202495799981989
1	15.175537999952212	ambiguous	54	p	2	ambiguous	ambiguous	preferred	600.0	30.0	0.12168900005053729	19.617037599906325	-3.152871199999936
1	12.022666799952276	stim	55		2	ambiguous	ambiguous	preferred	600.0	30.0		16.46416639990639	0.03378190007060766
1	12.056448700022884	stim	56		2	ambiguous	ambiguous	preferred	600.0	30.0		16.497948299976997	0.03331979992799461
1	12.089768499950878	stim	57		2	ambiguous	ambiguous	preferred	600.0	30.0		16.53126809990499	0.03355150006245822
1	12.123320000013337	stim	58		2	ambiguous	ambiguous	preferred	600.0	30.0		16.56481959996745	0.03315229993313551
1	12.156472299946472	stim	59		2	ambiguous	ambiguous	preferred	600.0	30.0		16.597971899900585	0.03345590003300458
1	12.189928199979477	stim	60		2	ambiguous	ambiguous	preferred	600.0	30.0		16.63142779993359	0.03342820005491376
1	12.22335640003439	stim	61		2	ambiguous	ambiguous	preferred	600.0	30.0		16.664855999988504	0.03339210001286119
1	12.256748500047252	stim	62		2	ambiguous	ambiguous	preferred	600.0	30.0		16.698248100001365	0.03345009998884052
1	12.290198600036092	stim	63		2	ambiguous	ambiguous	preferred	600.0	30.0		16.731698199990205	0.03444099996704608
1	12.324639600003138	stim	64		2	ambiguous	ambiguous	preferred	600.0	30.0		16.76613919995725	0.03233149996958673
1	12.356971099972725	stim	65		2	ambiguous	ambiguous	preferred	600.0	30.0		16.79847069992684	0.03337429999373853
1	12.390345399966463	stim	66		2	ambiguous	ambiguous	preferred	600.0	30.0		16.831844999920577	0.03361899999435991
1	12.423964399960823	stim	67		2	ambiguous	ambiguous	preferred	600.0	30.0		16.865463999914937	0.033433300093747675
1	12.457397700054571	stim	68		2	ambiguous	ambiguous	preferred	600.0	30.0		16.898897300008684	0.03328409988898784
1	12.490681799943559	stim	69		2	ambiguous	ambiguous	preferred	600.0	30.0		16.932181399897672	0.03386060008779168
1	12.52454240003135	stim	70		2	ambiguous	ambiguous	preferred	600.0	30.0		16.966041999985464	0.032976999995298684
1	12.55751940002665	stim	71		2	ambiguous	ambiguous	preferred	600.0	30.0		16.999018999980763	0.0334766999585554
1	12.590996099985205	stim	72		2	ambiguous	ambiguous	preferred	600.0	30.0		17.032495699939318	0.033344099996611476
1	12.624340199981816	stim	73		2	ambiguous	ambiguous	preferred	600.0	30.0		17.06583979993593	0.033326299977488816
1	12.657666499959305	stim	74		2	ambiguous	ambiguous	preferred	600.0	30.0		17.09916609991342	0.03335869999136776
1	12.691025199950673	stim	75		2	ambiguous	ambiguous	preferred	600.0	30.0		17.132524799904786	0.033496799995191395
1	12.724521999945864	stim	76		2	ambiguous	ambiguous	preferred	600.0	30.0		17.166021599899977	0.03328120009973645
1	12.7578032000456	stim	77		2	ambiguous	ambiguous	preferred	600.0	30.0		17.199302799999714	0.033864500001072884
1	12.791667700046673	stim	78		2	ambiguous	ambiguous	preferred	600.0	30.0		17.233167300000787	0.03321329993195832
1	12.824880999978632	stim	79		0	ambiguous	ambiguous	preferred	600.0	30.0		17.266380599932745	3.184162399964407
1	16.00904339994304	ambiguous	79	j	2	ambiguous	ambiguous	preferred	600.0	30.0	0.12112650007475168	20.450542999897152	-3.1341228999663144
1	12.874920499976724	stim	80		2	ambiguous	ambiguous	preferred	600.0	30.0		17.316420099930838	0.033268500003032386
1	12.908188999979757	stim	81		2	ambiguous	ambiguous	preferred	600.0	30.0		17.34968859993387	0.03413879999425262
1	12.94232779997401	stim	82		2	ambiguous	ambiguous	preferred	600.0	30.0		17.383827399928123	0.03288299997802824
1	12.975210799952038	stim	83		2	ambiguous	ambiguous	preferred	600.0	30.0		17.41671039990615	0.03354380000382662
1	13.008754599955864	stim	84		2	ambiguous	ambiguous	preferred	600.0	30.0		17.450254199909978	0.033350200043059886
1	13.042104799998924	stim	85		2	ambiguous	ambiguous	preferred	600.0	30.0		17.483604399953038	0.033413799945265055
1	13.07551859994419	stim	86		0	ambiguous	ambiguous	preferred	600.0	30.0		17.517018199898303	3.1684871000470594
1	16.24400569999125	ambiguous	86	j	2	ambiguous	ambiguous	preferred	600.0	30.0	0.12676679994910955	20.685505299945362	-3.1179404000286013
1	13.126065299962647	stim	87		2	ambiguous	ambiguous	preferred	600.0	30.0		17.56756489991676	0.03418930002953857
1	13.160254599992186	stim	88		2	ambiguous	ambiguous	preferred	600.0	30.0		17.6017541999463	0.032434900058433414
1	13.19268950005062	stim	89		2	ambiguous	ambiguous	preferred	600.0	30.0		17.634189100004733	0.0499698999337852
1	13.242659399984404	stim	90		2	ambiguous	ambiguous	preferred	600.0	30.0		17.684158999938518	0.033270200015977025
1	13.275929600000381	stim	91		2	ambiguous	ambiguous	preferred	600.0	30.0		17.717429199954495	0.03336849994957447
1	13.309298099949956	stim	92		2	ambiguous	ambiguous	preferred	600.0	30.0		17.75079769990407	0.03342340001836419
1	13.34272149996832	stim	93		2	ambiguous	ambiguous	preferred	600.0	30.0		17.784221099922433	0.033935600076802075
1	13.376657100045122	stim	94		2	ambiguous	ambiguous	preferred	600.0	30.0		17.818156699999236	0.03299709991551936
1	13.409654199960642	stim	95		2	ambiguous	ambiguous	preferred	600.0	30.0		17.851153799914755	0.033415500074625015
1	13.443069700035267	stim	96		2	ambiguous	ambiguous	preferred	600.0	30.0		17.88456929998938	0.03337029996328056
1	13.476439999998547	stim	97		2	ambiguous	ambiguous	preferred	600.0	30.0		17.91793959995266	0.03333370003383607
1	13.509773700032383	stim	98		0	ambiguous	ambiguous	preferred	600.0	30.0		17.951273299986497	3.153345799888484
1	16.663119499920867	ambiguous	98	j	2	ambiguous	ambiguous	preferred	600.0	30.0	0.1737957000732422	21.10461909987498	-3.120285199955106
1	13.542834299965762	stim	99		2	ambiguous	ambiguous	preferred	600.0	30.0		17.984333899919875	0.0346205000532791
1	13.57745480001904	stim	100		2	ambiguous	ambiguous	preferred	600.0	30.0		18.018954399973154	0.03234819998033345
1	13.609802999999374	stim	101		2	ambiguous	ambiguous	preferred	600.0	30.0		18.051302599953488	0.03373899997677654
1	13.64354199997615	stim	102		2	ambiguous	ambiguous	preferred	600.0	30.0		18.085041599930264	0.033565000048838556
1	13.67710700002499	stim	103		2	ambiguous	ambiguous	preferred	600.0	30.0		18.118606599979103	0.033289199927821755
1	13.710396199952811	stim	104		0	ambiguous	ambiguous	preferred	600.0	30.0		18.151895799906924	3.084485200000927
1	16.794881399953738	ambiguous	104	f	2	ambiguous	ambiguous	preferred	600.0	30.0	0.21568060002755374	21.23638099990785	-3.034283099928871
1	13.760598300024867	stim	105		2	ambiguous	ambiguous	preferred	600.0	30.0		18.20209789997898	0.03379479993600398
1	13.794393099960871	stim	106		2	ambiguous	ambiguous	preferred	600.0	30.0		18.235892699914984	0.033135200035758317
1	13.82752829999663	stim	107		2	ambiguous	ambiguous	preferred	600.0	30.0		18.269027899950743	0.033170899958349764
1	13.86069919995498	stim	108		0	ambiguous	ambiguous	preferred	600.0	30.0		18.302198799909092	3.185506600071676
1	17.046205800026655	ambiguous	108	j	2	ambiguous	ambiguous	preferred	600.0	30.0	0.12612569995690137	21.48770539998077	-3.1351482999743894
1	13.911057500052266	stim	109		2	ambiguous	ambiguous	preferred	600.0	30.0		18.35255710000638	0.032975499983876944
1	13.944033000036143	stim	110		2	ambiguous	ambiguous	preferred	600.0	30.0		18.385532599990256	0.03378759999759495
1	13.977820600033738	stim	111		0	ambiguous	ambiguous	preferred	600.0	30.0		18.41932019998785	3.240786699927412
1	17.21860729996115	ambiguous	111	f	2	ambiguous	ambiguous	preferred	600.0	30.0	0.07947620004415512	21.660106899915263	-3.2074172999709845
1	14.011189999990165	stim	112		2	ambiguous	ambiguous	preferred	600.0	30.0		18.45268959994428	0.033141099964268506
1	14.044331099954434	stim	113		2	ambiguous	ambiguous	preferred	600.0	30.0		18.485830699908547	0.033455500029958785
1	14.077786599984393	stim	114		2	ambiguous	ambiguous	preferred	600.0	30.0		18.519286199938506	0.033271800028160214
1	14.111058400012553	stim	115		2	ambiguous	ambiguous	preferred	600.0	30.0		18.552557999966666	0.03351929993368685
1	14.14457769994624	stim	116		2	ambiguous	ambiguous	preferred	600.0	30.0		18.586077299900353	0.03335400007199496
1	14.177931700018235	stim	117		2	ambiguous	ambiguous	preferred	600.0	30.0		18.619431299972348	0.03416079992894083
1	14.212092499947175	stim	118		2	ambiguous	ambiguous	preferred	600.0	30.0		18.65359209990129	0.03284260001964867
1	14.244935099966824	stim	119		2	ambiguous	ambiguous	preferred	600.0	30.0		18.686434699920937	0.0336325999815017
1	14.278567699948326	stim	120		2	ambiguous	ambiguous	preferred	600.0	30.0		18.72006729990244	0.03331290010828525
1	14.311880600056611	stim	121		2	ambiguous	ambiguous	preferred	600.0	30.0		18.753380200010724	0.03331049997359514
1	14.345191100030206	stim	122		2	ambiguous	ambiguous	preferred	600.0	30.0		18.78669069998432	0.03327100002206862
1	14.378462100052275	stim	123		2	ambiguous	ambiguous	preferred	600.0	30.0		18.819961700006388	0.03392529999837279
1	14.412387400050648	stim	124		2	ambiguous	ambiguous	preferred	600.0	30.0		18.85388700000476	0.03285439999308437
1	14.445241800043732	stim	125		2	ambiguous	ambiguous	preferred	600.0	30.0		18.886741399997845	0.033434399985708296
1	14.47867620002944	stim	126		2	ambiguous	ambiguous	preferred	600.0	30.0		18.920175799983554	0.03327130002435297
1	14.511947500053793	stim	127		1	ambiguous	ambiguous	preferred	600.0	30.0		18.953447100007907	0.10017969994805753
