trial_nr	onset	event_type	phase	response	nr_frames	block_type	trial_type	response_hand	phase_length	key_duration	onset_abs	duration
0	0.006230099941603839	stim	0		0	break	break	preferred	1.0		5.682029599905945	3.3556211000541225
0	3.3618511999957263	break	0	space	0	break	break	preferred	1.0	0.08979650004766881	9.037650699960068	1.0418702999595553
0	4.403721499955282	break	0	space	297	break	break	preferred	1.0	0.1107845000224188	10.079520999919623	0.5972558000357822
1	5.000977299991064	stim	0		2	ambiguous	ambiguous	preferred	600.0		10.676776799955405	0.031182699953205884
1	5.03215999994427	stim	1		2	ambiguous	ambiguous	preferred	600.0		10.707959499908611	0.03535949997603893
1	5.067519499920309	stim	2		2	ambiguous	ambiguous	preferred	600.0		10.74331899988465	0.03342340001836419
1	5.100942899938673	stim	3		2	ambiguous	ambiguous	preferred	600.0		10.776742399903014	0.03336310002487153
1	5.134305999963544	stim	4		2	ambiguous	ambiguous	preferred	600.0		10.810105499927886	0.03113130002748221
1	5.1654372999910265	stim	5		2	ambiguous	ambiguous	preferred	600.0		10.841236799955368	0.035588899976573884
1	5.2010261999676	stim	6		2	ambiguous	ambiguous	preferred	600.0		10.876825699931942	0.03322969994042069
1	5.234255899908021	stim	7		2	ambiguous	ambiguous	preferred	600.0		10.910055399872363	0.03339960006996989
1	5.267655499977991	stim	8		2	ambiguous	ambiguous	preferred	600.0		10.943454999942333	0.03297569998539984
1	5.300631199963391	stim	9		2	ambiguous	ambiguous	preferred	600.0		10.976430699927732	0.0333909000037238
1	5.334022099967115	stim	10		2	ambiguous	ambiguous	preferred	600.0		11.009821599931456	0.033514500013552606
1	5.367536599980667	stim	11		2	ambiguous	ambiguous	preferred	600.0		11.043336099945009	0.03324369993060827
1	5.4007802999112755	stim	12		2	ambiguous	ambiguous	preferred	600.0		11.076579799875617	0.03336080000735819
1	5.434141099918634	stim	13		2	ambiguous	ambiguous	preferred	600.0		11.109940599882975	0.03351830004248768
1	5.467659399961121	stim	14		2	ambiguous	ambiguous	preferred	600.0		11.143458899925463	0.03405150002799928
1	5.501710899989121	stim	15		2	ambiguous	ambiguous	preferred	600.0		11.177510399953462	0.03335109993349761
1	5.535061999922618	stim	16		2	ambiguous	ambiguous	preferred	600.0		11.21086149988696	0.03230299998540431
1	5.567364999908023	stim	17		2	ambiguous	ambiguous	preferred	600.0		11.243164499872364	0.033305900054983795
1	5.600670899963006	stim	18		2	ambiguous	ambiguous	preferred	600.0		11.276470399927348	0.033440400031395257
1	5.634111299994402	stim	19		2	ambiguous	ambiguous	preferred	600.0		11.309910799958743	0.03347259992733598
1	5.667583899921738	stim	20		2	ambiguous	ambiguous	preferred	600.0		11.34338339988608	0.03319430002011359
1	5.700778199941851	stim	21		2	ambiguous	ambiguous	preferred	600.0		11.376577699906193	0.03332020004745573
1	5.734098399989307	stim	22		2	ambiguous	ambiguous	preferred	600.0		11.409897899953648	0.033316100016236305
1	5.767414500005543	stim	23		2	ambiguous	ambiguous	preferred	600.0		11.443213999969885	0.03339509991928935
1	5.800809599924833	stim	24		2	ambiguous	ambiguous	preferred	600.0		11.476609099889174	0.033727900008670986
1	5.834537499933504	stim	25		2	ambiguous	ambiguous	preferred	600.0		11.510336999897845	0.03373370005283505
1	5.868271199986339	stim	26		2	ambiguous	ambiguous	preferred	600.0		11.54407069995068	0.03376110002864152
1	5.90203230001498	stim	27		2	ambiguous	ambiguous	preferred	600.0		11.577831799979322	0.03331199998501688
1	5.935344299999997	stim	28		2	ambiguous	ambiguous	preferred	600.0		11.611143799964339	0.03370159992482513
1	5.969045899924822	stim	29		2	ambiguous	ambiguous	preferred	600.0		11.644845399889164	0.03361929999664426
1	6.002665199921466	stim	30		2	ambiguous	ambiguous	preferred	600.0		11.678464699885808	0.03328309999778867
1	6.035948299919255	stim	31		2	ambiguous	ambiguous	preferred	600.0		11.711747799883597	0.03336780006065965
1	6.069316099979915	stim	32		2	ambiguous	ambiguous	preferred	600.0		11.745115599944256	0.0333478000247851
1	6.1026639000047	stim	33		2	ambiguous	ambiguous	preferred	600.0		11.778463399969041	0.03336030000355095
1	6.136024200008251	stim	34		2	ambiguous	ambiguous	preferred	600.0		11.811823699972592	0.03337299998383969
1	6.1693971999920905	stim	35		2	ambiguous	ambiguous	preferred	600.0		11.845196699956432	0.03340590000152588
1	6.202803099993616	stim	36		2	ambiguous	ambiguous	preferred	600.0		11.878602599957958	0.03314840001985431
1	6.235951500013471	stim	37		2	ambiguous	ambiguous	preferred	600.0		11.911750999977812	0.0333719999762252
1	6.269323499989696	stim	38		2	ambiguous	ambiguous	preferred	600.0		11.945122999954037	0.033382699941284955
1	6.302706199930981	stim	39		2	ambiguous	ambiguous	preferred	600.0		11.978505699895322	0.03357480000704527
1	6.336280999938026	stim	40		2	ambiguous	ambiguous	preferred	600.0		12.012080499902368	0.03336930007208139
1	6.3696503000101075	stim	41		2	ambiguous	ambiguous	preferred	600.0		12.045449799974449	0.033591399900615215
1	6.403241699910723	stim	42		2	ambiguous	ambiguous	preferred	600.0		12.079041199875064	0.033074900042265654
1	6.436316599952988	stim	43		2	ambiguous	ambiguous	preferred	600.0		12.11211609991733	0.03355000005103648
1	6.469866600004025	stim	44		2	ambiguous	ambiguous	preferred	600.0		12.145666099968366	0.03316250001080334
1	6.503029100014828	stim	45		2	ambiguous	ambiguous	preferred	600.0		12.17882859997917	0.033560499898158014
1	6.536589599912986	stim	46		2	ambiguous	ambiguous	preferred	600.0		12.212389099877328	0.03333790006581694
1	6.569927499978803	stim	47		2	ambiguous	ambiguous	preferred	600.0		12.245726999943145	0.033236099989153445
1	6.6031635999679565	stim	48		2	ambiguous	ambiguous	preferred	600.0		12.278963099932298	0.03338539996184409
1	6.636548999929801	stim	49		2	ambiguous	ambiguous	preferred	600.0		12.312348499894142	0.03303789999336004
1	6.669586899923161	stim	50		2	ambiguous	ambiguous	preferred	600.0		12.345386399887502	0.03336450003553182
1	6.7029513999586925	stim	51		2	ambiguous	ambiguous	preferred	600.0		12.378750899923034	0.03383229998871684
1	6.736783699947409	stim	52		2	ambiguous	ambiguous	preferred	600.0		12.41258319991175	0.03329439996741712
1	6.7700780999148265	stim	53		2	ambiguous	ambiguous	preferred	600.0		12.445877599879168	0.03348300000652671
1	6.803561099921353	stim	54		2	ambiguous	ambiguous	preferred	600.0		12.479360599885695	0.03340469999238849
1	6.836965799913742	stim	55		2	ambiguous	ambiguous	preferred	600.0		12.512765299878083	0.033658600063063204
1	6.870624399976805	stim	56		2	ambiguous	ambiguous	preferred	600.0		12.546423899941146	0.03394039999693632
1	6.904564799973741	stim	57		2	ambiguous	ambiguous	preferred	600.0		12.580364299938083	0.03331850003451109
1	6.937883300008252	stim	58		2	ambiguous	ambiguous	preferred	600.0		12.613682799972594	0.03476750000845641
1	6.972650800016709	stim	59		2	ambiguous	ambiguous	preferred	600.0		12.64845029998105	0.032532399985939264
1	7.005183200002648	stim	60		2	ambiguous	ambiguous	preferred	600.0		12.68098269996699	0.03332089993637055
1	7.0385040999390185	stim	61		2	ambiguous	ambiguous	preferred	600.0		12.71430359990336	0.033265799982473254
1	7.071769899921492	stim	62		2	ambiguous	ambiguous	preferred	600.0		12.747569399885833	0.033254000009037554
1	7.105023899930529	stim	63		2	ambiguous	ambiguous	preferred	600.0		12.78082339989487	0.03334229998290539
1	7.138366199913435	stim	64		2	ambiguous	ambiguous	preferred	600.0		12.814165699877776	0.03390340006444603
1	7.172269599977881	stim	65		2	ambiguous	ambiguous	preferred	600.0		12.848069099942222	0.03299340000376105
1	7.205262999981642	stim	66		2	ambiguous	ambiguous	preferred	600.0		12.881062499945983	0.03335099993273616
1	7.238613999914378	stim	67		2	ambiguous	ambiguous	preferred	600.0		12.91441349987872	0.03333220002241433
1	7.271946199936792	stim	68		2	ambiguous	ambiguous	preferred	600.0		12.947745699901134	0.033717600046657026
1	7.305663799983449	stim	69		2	ambiguous	ambiguous	preferred	600.0		12.98146329994779	0.033490699948742986
1	7.339154499932192	stim	70		2	ambiguous	ambiguous	preferred	600.0		13.014953999896534	0.03315969998948276
1	7.372314199921675	stim	71		2	ambiguous	ambiguous	preferred	600.0		13.048113699886017	0.03333730006124824
1	7.405651499982923	stim	72		2	ambiguous	ambiguous	preferred	600.0		13.081450999947265	0.0333165000192821
1	7.438968000002205	stim	73		2	ambiguous	ambiguous	preferred	600.0		13.114767499966547	0.03331839991733432
1	7.47228639991954	stim	74		2	ambiguous	ambiguous	preferred	600.0		13.148085899883881	0.03338230005465448
1	7.505668699974194	stim	75		2	ambiguous	ambiguous	preferred	600.0		13.181468199938536	0.034196099964901805
1	7.539864799939096	stim	76		2	ambiguous	ambiguous	preferred	600.0		13.215664299903437	0.033128099981695414
1	7.572992899920791	stim	77		2	ambiguous	ambiguous	preferred	600.0		13.248792399885133	0.03327800007537007
1	7.6062708999961615	stim	78		2	ambiguous	ambiguous	preferred	600.0		13.282070399960503	0.033380899927578866
1	7.63965179992374	stim	79		2	ambiguous	ambiguous	preferred	600.0		13.315451299888082	0.03327090002130717
1	7.6729226999450475	stim	80		2	ambiguous	ambiguous	preferred	600.0		13.348722199909389	0.03346840001177043
1	7.706391099956818	stim	81		2	ambiguous	ambiguous	preferred	600.0		13.38219059992116	0.033239200012758374
1	7.739630299969576	stim	82		2	ambiguous	ambiguous	preferred	600.0		13.415429799933918	0.03347929997835308
1	7.773109599947929	stim	83		2	ambiguous	ambiguous	preferred	600.0		13.448909099912271	0.03320920001715422
1	7.806318799965084	stim	84		2	ambiguous	ambiguous	preferred	600.0		13.482118299929425	0.03329449996817857
1	7.839613299933262	stim	85		2	ambiguous	ambiguous	preferred	600.0		13.515412799897604	0.0333795000333339
1	7.872992799966596	stim	86		2	ambiguous	ambiguous	preferred	600.0		13.548792299930938	0.03325019998010248
1	7.9062429999466985	stim	87		2	ambiguous	ambiguous	preferred	600.0		13.58204249991104	0.03336010000202805
1	7.939603099948727	stim	88		2	ambiguous	ambiguous	preferred	600.0		13.615402599913068	0.03388170001562685
1	7.973484799964353	stim	89		2	ambiguous	ambiguous	preferred	600.0		13.649284299928695	0.033252499997615814
1	8.00673729996197	stim	90		2	ambiguous	ambiguous	preferred	600.0		13.68253679992631	0.03332040004897863
1	8.040057700010948	stim	91		2	ambiguous	ambiguous	preferred	600.0		13.71585719997529	0.03329409996513277
1	8.07335179997608	stim	92		2	ambiguous	ambiguous	preferred	600.0		13.749151299940422	0.03365899994969368
1	8.107010799925774	stim	93		2	ambiguous	ambiguous	preferred	600.0		13.782810299890116	0.03420840005856007
1	8.141219199984334	stim	94		2	ambiguous	ambiguous	preferred	600.0		13.817018699948676	0.03304150002077222
1	8.174260700005107	stim	95		2	ambiguous	ambiguous	preferred	600.0		13.850060199969448	0.03317760000936687
1	8.207438300014473	stim	96		2	ambiguous	ambiguous	preferred	600.0		13.883237799978815	0.033212199923582375
1	8.240650499938056	stim	97		2	ambiguous	ambiguous	preferred	600.0		13.916449999902397	0.03334980004001409
1	8.27400029997807	stim	98		2	ambiguous	ambiguous	preferred	600.0		13.949799799942411	0.03364429995417595
1	8.307644599932246	stim	99		2	ambiguous	ambiguous	preferred	600.0		13.983444099896587	0.03390360006596893
1	8.341548199998215	stim	100		2	ambiguous	ambiguous	preferred	600.0		14.017347699962556	0.03350609994959086
1	8.375054299947806	stim	101		2	ambiguous	ambiguous	preferred	600.0		14.050853799912147	0.03360750002320856
1	8.408661799971014	stim	102		2	ambiguous	ambiguous	preferred	600.0		14.084461299935356	0.03327859996352345
1	8.441940399934538	stim	103		2	ambiguous	ambiguous	preferred	600.0		14.11773989989888	0.03402520006056875
1	8.475965599995106	stim	104		2	ambiguous	ambiguous	preferred	600.0		14.151765099959448	0.03380889992695302
1	8.50977449992206	stim	105		2	ambiguous	ambiguous	preferred	600.0		14.185573999886401	0.03334510000422597
1	8.543119599926285	stim	106		2	ambiguous	ambiguous	preferred	600.0		14.218919099890627	0.03371650003828108
1	8.576836099964567	stim	107		2	ambiguous	ambiguous	preferred	600.0		14.252635599928908	0.03307650005444884
1	8.609912600019015	stim	108		2	ambiguous	ambiguous	preferred	600.0		14.285712099983357	0.03333929996006191
1	8.643251899979077	stim	109		2	ambiguous	ambiguous	preferred	600.0		14.319051399943419	0.033426999929361045
1	8.676678899908438	stim	110		2	ambiguous	ambiguous	preferred	600.0		14.35247839987278	0.033417500089854
1	8.710096399998292	stim	111		2	ambiguous	ambiguous	preferred	600.0		14.385895899962634	0.03385409992188215
1	8.743950499920174	stim	112		2	ambiguous	ambiguous	preferred	600.0		14.419749999884516	0.033280900097452104
1	8.777231400017627	stim	113		2	ambiguous	ambiguous	preferred	600.0		14.453030899981968	0.03316259989514947
1	8.810393999912776	stim	114		2	ambiguous	ambiguous	preferred	600.0		14.486193499877118	0.033261600066907704
1	8.843655599979684	stim	115		2	ambiguous	ambiguous	preferred	600.0		14.519455099944025	0.03358189994469285
1	8.877237499924377	stim	116		2	ambiguous	ambiguous	preferred	600.0		14.553036999888718	0.03343980002682656
1	8.910677299951203	stim	117		2	ambiguous	ambiguous	preferred	600.0		14.586476799915545	0.0335348000517115
1	8.944212100002915	stim	118		2	ambiguous	ambiguous	preferred	600.0		14.620011599967256	0.033178500016219914
1	8.977390600019135	stim	119		2	ambiguous	ambiguous	preferred	600.0		14.653190099983476	0.033431699965149164
1	9.010822299984284	stim	120		2	ambiguous	ambiguous	preferred	600.0		14.686621799948625	0.03325730003416538
1	9.04407960001845	stim	121		2	ambiguous	ambiguous	preferred	600.0		14.71987909998279	0.03364159993361682
1	9.077721199952066	stim	122		2	ambiguous	ambiguous	preferred	600.0		14.753520699916407	0.0334961999906227
1	9.111217399942689	stim	123		2	ambiguous	ambiguous	preferred	600.0		14.78701689990703	0.03352699999231845
1	9.144744399935007	stim	124		2	ambiguous	ambiguous	preferred	600.0		14.820543899899349	0.03341859998181462
1	9.178162999916822	stim	125		2	ambiguous	ambiguous	preferred	600.0		14.853962499881163	0.0330825001001358
1	9.211245500016958	stim	126		2	ambiguous	ambiguous	preferred	600.0		14.887044999981299	0.03357569989748299
1	9.24482119991444	stim	127		2	ambiguous	ambiguous	preferred	600.0		14.920620699878782	0.03388990007806569
1	9.278711099992506	stim	128		2	ambiguous	ambiguous	preferred	600.0		14.954510599956848	0.033092299941927195
1	9.311803399934433	stim	129		2	ambiguous	ambiguous	preferred	600.0		14.987602899898775	0.033246500068344176
1	9.345049900002778	stim	130		2	ambiguous	ambiguous	preferred	600.0		15.020849399967119	0.03351549990475178
1	9.37856539990753	stim	131		2	ambiguous	ambiguous	preferred	600.0		15.05436489987187	0.03360020008403808
1	9.412165599991567	stim	132		2	ambiguous	ambiguous	preferred	600.0		15.087965099955909	0.03334229998290539
1	9.445507899974473	stim	133		2	ambiguous	ambiguous	preferred	600.0		15.121307399938814	0.033800499979406595
1	9.47930839995388	stim	134		2	ambiguous	ambiguous	preferred	600.0		15.155107899918221	0.033480299985967577
1	9.512788699939847	stim	135		2	ambiguous	ambiguous	preferred	600.0		15.188588199904189	0.03338530007749796
1	9.546174000017345	stim	136		2	ambiguous	ambiguous	preferred	600.0		15.221973499981686	0.03327949997037649
1	9.579453499987721	stim	137		2	ambiguous	ambiguous	preferred	600.0		15.255252999952063	0.03340620000381023
1	9.612859699991532	stim	138		2	ambiguous	ambiguous	preferred	600.0		15.288659199955873	0.03330449992790818
1	9.64616419991944	stim	139		2	ambiguous	ambiguous	preferred	600.0		15.321963699883781	0.03381620009895414
1	9.679980400018394	stim	140		2	ambiguous	ambiguous	preferred	600.0		15.355779899982736	0.03372619999572635
1	9.71370660001412	stim	141		2	ambiguous	ambiguous	preferred	600.0		15.389506099978462	0.033441899926401675
1	9.747148499940522	stim	142		2	ambiguous	ambiguous	preferred	600.0		15.422947999904864	0.03328440000768751
1	9.78043289994821	stim	143		2	ambiguous	ambiguous	preferred	600.0		15.456232399912551	0.03326509997714311
1	9.813697999925353	stim	144		2	ambiguous	ambiguous	preferred	600.0		15.489497499889694	0.033390399999916553
1	9.84708839992527	stim	145		2	ambiguous	ambiguous	preferred	600.0		15.52288789988961	0.03352400008589029
1	9.88061240001116	stim	146		2	ambiguous	ambiguous	preferred	600.0		15.556411899975501	0.033450999995693564
1	9.914063400006853	stim	147		2	ambiguous	ambiguous	preferred	600.0		15.589862899971195	0.049814999918453395
1	9.963878399925306	stim	148		2	ambiguous	ambiguous	preferred	600.0		15.639677899889648	0.03366299998015165
1	9.997541399905458	stim	149		2	ambiguous	ambiguous	preferred	600.0		15.6733408998698	0.03330060001462698
1	10.030841999920085	stim	150		2	ambiguous	ambiguous	preferred	600.0		15.706641499884427	0.033391800010576844
1	10.064233799930662	stim	151		2	ambiguous	ambiguous	preferred	600.0		15.740033299895003	0.033603299991227686
1	10.09783709992189	stim	152		2	ambiguous	ambiguous	preferred	600.0		15.773636599886231	0.033097000094130635
1	10.13093410001602	stim	153		2	ambiguous	ambiguous	preferred	600.0		15.806733599980362	0.033296899986453354
1	10.164231000002474	stim	154		2	ambiguous	ambiguous	preferred	600.0		15.840030499966815	0.0334453999530524
1	10.197676399955526	stim	155		2	ambiguous	ambiguous	preferred	600.0		15.873475899919868	0.03357760002836585
1	10.231253999983892	stim	156		2	ambiguous	ambiguous	preferred	600.0		15.907053499948233	0.033262799959629774
1	10.264516799943522	stim	157		2	ambiguous	ambiguous	preferred	600.0		15.940316299907863	0.033280399977229536
1	10.297797199920751	stim	158		2	ambiguous	ambiguous	preferred	600.0		15.973596699885093	0.03332290006801486
1	10.331120099988766	stim	159		2	ambiguous	ambiguous	preferred	600.0		16.006919599953108	0.0335510999429971
1	10.364671199931763	stim	160		2	ambiguous	ambiguous	preferred	600.0		16.040470699896105	0.036177100031636655
1	10.4008482999634	stim	161		2	ambiguous	ambiguous	preferred	600.0		16.07664779992774	0.033363600028678775
1	10.434211899992079	stim	162		2	ambiguous	ambiguous	preferred	600.0		16.11001139995642	0.03304749995004386
1	10.467259399942122	stim	163		2	ambiguous	ambiguous	preferred	600.0		16.143058899906464	0.034452700056135654
1	10.501712099998258	stim	164		2	ambiguous	ambiguous	preferred	600.0		16.1775115999626	0.04963609995320439
1	10.551348199951462	stim	165		2	ambiguous	ambiguous	preferred	600.0		16.227147699915804	0.033590400009416044
1	10.584938599960878	stim	166		2	ambiguous	ambiguous	preferred	600.0		16.26073809992522	0.03441009996458888
1	10.619348699925467	stim	167		2	ambiguous	ambiguous	preferred	600.0		16.29514819988981	0.03144679998513311
1	10.6507954999106	stim	168		2	ambiguous	ambiguous	preferred	600.0		16.326594999874942	0.03322620003018528
1	10.684021699940786	stim	169		2	ambiguous	ambiguous	preferred	600.0		16.359821199905127	0.033333900035358965
1	10.717355599976145	stim	170		2	ambiguous	ambiguous	preferred	600.0		16.393155099940486	0.03333160001784563
1	10.75068719999399	stim	171		2	ambiguous	ambiguous	preferred	600.0		16.426486699958332	0.03310320002492517
1	10.783790400018916	stim	172		2	ambiguous	ambiguous	preferred	600.0		16.459589899983257	0.033502499922178686
1	10.817292899941094	stim	173		2	ambiguous	ambiguous	preferred	600.0		16.493092399905436	0.03329940000548959
1	10.850592299946584	stim	174		2	ambiguous	ambiguous	preferred	600.0		16.526391799910925	0.03360139997676015
1	10.884193699923344	stim	175		2	ambiguous	ambiguous	preferred	600.0		16.559993199887685	0.033373999991454184
1	10.917567699914798	stim	176		2	ambiguous	ambiguous	preferred	600.0		16.59336719987914	0.03311150008812547
1	10.950679200002924	stim	177		2	ambiguous	ambiguous	preferred	600.0		16.626478699967265	0.03323669999372214
1	10.983915899996646	stim	178		2	ambiguous	ambiguous	preferred	600.0		16.659715399960987	0.033393200021237135
1	11.017309100017883	stim	179		2	ambiguous	ambiguous	preferred	600.0		16.693108599982224	0.03371219988912344
1	11.051021299907006	stim	180		2	ambiguous	ambiguous	preferred	600.0		16.726820799871348	0.034106400096789
1	11.085127700003795	stim	181		2	ambiguous	ambiguous	preferred	600.0		16.760927199968137	0.03320239996537566
1	11.118330099969171	stim	182		2	ambiguous	ambiguous	preferred	600.0		16.794129599933513	0.03373409993946552
1	11.152064199908637	stim	183		2	ambiguous	ambiguous	preferred	600.0		16.827863699872978	0.03341820009518415
1	11.18548240000382	stim	184		2	ambiguous	ambiguous	preferred	600.0		16.861281899968162	0.03372269996907562
1	11.219205099972896	stim	185		2	ambiguous	ambiguous	preferred	600.0		16.895004599937238	0.03355980000924319
1	11.25276489998214	stim	186		2	ambiguous	ambiguous	preferred	600.0		16.92856439994648	0.03392780001740903
1	11.286692699999548	stim	187		2	ambiguous	ambiguous	preferred	600.0		16.96249219996389	0.033282199990935624
1	11.319974899990484	stim	188		2	ambiguous	ambiguous	preferred	600.0		16.995774399954826	0.03369910002220422
1	11.353674000012688	stim	189		2	ambiguous	ambiguous	preferred	600.0		17.02947349997703	0.033428399940021336
1	11.38710239995271	stim	190		2	ambiguous	ambiguous	preferred	600.0		17.06290189991705	0.03367929998785257
1	11.420781699940562	stim	191		2	ambiguous	ambiguous	preferred	600.0		17.096581199904904	0.03383580001536757
1	11.45461749995593	stim	192		2	ambiguous	ambiguous	preferred	600.0		17.13041699992027	0.033170799957588315
1	11.487788299913518	stim	193		2	ambiguous	ambiguous	preferred	600.0		17.16358779987786	0.03330810007173568
1	11.521096399985254	stim	194		2	ambiguous	ambiguous	preferred	600.0		17.196895899949595	0.03334149997681379
1	11.554437899962068	stim	195		2	ambiguous	ambiguous	preferred	600.0		17.23023739992641	0.03331510000862181
1	11.58775299997069	stim	196		2	ambiguous	ambiguous	preferred	600.0		17.26355249993503	0.03343940002378076
1	11.62119239999447	stim	197		2	ambiguous	ambiguous	preferred	600.0		17.29699189995881	0.03367109992541373
1	11.654863499919884	stim	198		2	ambiguous	ambiguous	preferred	600.0		17.330662999884225	0.03336840006522834
1	11.688231899985112	stim	199		2	ambiguous	ambiguous	preferred	600.0		17.364031399949454	0.033342799986712635
1	11.721574699971825	stim	200		2	ambiguous	ambiguous	preferred	600.0		17.397374199936166	0.03340169996954501
1	11.75497639994137	stim	201		2	ambiguous	ambiguous	preferred	600.0		17.43077589990571	0.03343070007394999
1	11.78840710001532	stim	202		2	ambiguous	ambiguous	preferred	600.0		17.46420659997966	0.033683199901133776
1	11.822090299916454	stim	203		2	ambiguous	ambiguous	preferred	600.0		17.497889799880795	0.03318100003525615
1	11.85527129995171	stim	204		2	ambiguous	ambiguous	preferred	600.0		17.53107079991605	0.033258500043302774
1	11.888529799995013	stim	205		2	ambiguous	ambiguous	preferred	600.0		17.564329299959354	0.03337590000592172
1	11.921905700000934	stim	206		2	ambiguous	ambiguous	preferred	600.0		17.597705199965276	0.033348699915222824
1	11.955254399916157	stim	207		2	ambiguous	ambiguous	preferred	600.0		17.6310538998805	0.03330760006792843
1	11.988561999984086	stim	208		2	ambiguous	ambiguous	preferred	600.0		17.664361499948427	0.03338139993138611
1	12.021943399915472	stim	209		2	ambiguous	ambiguous	preferred	600.0		17.697742899879813	0.03347100003156811
1	12.05541439994704	stim	210		2	ambiguous	ambiguous	preferred	600.0		17.73121389991138	0.033219699980691075
1	12.08863409992773	stim	211		2	ambiguous	ambiguous	preferred	600.0		17.764433599892072	0.033413800061680377
1	12.122047899989411	stim	212		2	ambiguous	ambiguous	preferred	600.0		17.797847399953753	0.03336569992825389
1	12.155413599917665	stim	213		2	ambiguous	ambiguous	preferred	600.0		17.831213099882007	0.03359240002464503
1	12.18900599994231	stim	214		2	ambiguous	ambiguous	preferred	600.0		17.86480549990665	0.03358649997971952
1	12.22259249992203	stim	215		2	ambiguous	ambiguous	preferred	600.0		17.89839199988637	0.03363980003632605
1	12.256232299958356	stim	216		2	ambiguous	ambiguous	preferred	600.0		17.932031799922697	0.03328590001910925
1	12.289518199977465	stim	217		2	ambiguous	ambiguous	preferred	600.0		17.965317699941806	0.03328109998255968
1	12.322799299960025	stim	218		2	ambiguous	ambiguous	preferred	600.0		17.998598799924366	0.03330809995532036
1	12.356107399915345	stim	219		2	ambiguous	ambiguous	preferred	600.0		18.031906899879687	0.033308900077827275
1	12.389416299993172	stim	220		2	ambiguous	ambiguous	preferred	600.0		18.065215799957514	0.03345859993714839
1	12.42287489993032	stim	221		2	ambiguous	ambiguous	preferred	600.0		18.098674399894662	0.03333060001023114
1	12.456205499940552	stim	222		2	ambiguous	ambiguous	preferred	600.0		18.132004999904893	0.033342899987474084
1	12.489548399928026	stim	223		2	ambiguous	ambiguous	preferred	600.0		18.165347899892367	0.03332899999804795
1	12.522877399926074	stim	224		2	ambiguous	ambiguous	preferred	600.0		18.198676899890415	0.03339660004712641
1	12.5562739999732	stim	225		2	ambiguous	ambiguous	preferred	600.0		18.232073499937542	0.033290699939243495
1	12.589564699912444	stim	226		2	ambiguous	ambiguous	preferred	600.0		18.265364199876785	0.0335350000532344
1	12.623099699965678	stim	227		2	ambiguous	ambiguous	preferred	600.0		18.29889919993002	0.03353320003952831
1	12.656632900005206	stim	228		2	ambiguous	ambiguous	preferred	600.0		18.332432399969548	0.03345449990592897
1	12.690087399911135	stim	229		2	ambiguous	ambiguous	preferred	600.0		18.365886899875477	0.03336920007131994
1	12.723456599982455	stim	230		2	ambiguous	ambiguous	preferred	600.0		18.399256099946797	0.0332425000378862
1	12.756699100020342	stim	231		2	ambiguous	ambiguous	preferred	600.0		18.432498599984683	0.03412109997589141
1	12.790820199996233	stim	232		2	ambiguous	ambiguous	preferred	600.0		18.466619699960575	0.03306929999962449
1	12.823889499995857	stim	233		2	ambiguous	ambiguous	preferred	600.0		18.4996889999602	0.033732099924236536
1	12.857621599920094	stim	234		2	ambiguous	ambiguous	preferred	600.0		18.533421099884436	0.0335230000782758
1	12.89114459999837	stim	235		2	ambiguous	ambiguous	preferred	600.0		18.56694409996271	0.033729600021615624
1	12.924874200019985	stim	236		2	ambiguous	ambiguous	preferred	600.0		18.600673699984327	0.033779599936679006
1	12.958653799956664	stim	237		2	ambiguous	ambiguous	preferred	600.0		18.634453299921006	0.03341479995287955
1	12.992068599909544	stim	238		2	ambiguous	ambiguous	preferred	600.0		18.667868099873886	0.03304920007940382
1	13.025117799988948	stim	239		2	ambiguous	ambiguous	preferred	600.0		18.70091729995329	0.03317149996291846
1	13.058289299951866	stim	240		2	ambiguous	ambiguous	preferred	600.0		18.734088799916208	0.03357920004054904
1	13.091868499992415	stim	241		2	ambiguous	ambiguous	preferred	600.0		18.767667999956757	0.03342380002140999
1	13.125292300013825	stim	242		2	ambiguous	ambiguous	preferred	600.0		18.801091799978167	0.0332902999361977
1	13.158582599950023	stim	243		2	ambiguous	ambiguous	preferred	600.0		18.834382099914365	0.0334961999906227
1	13.192078799940646	stim	244		2	ambiguous	ambiguous	preferred	600.0		18.867878299904987	0.033600299968384206
1	13.22567909990903	stim	245		2	ambiguous	ambiguous	preferred	600.0		18.90147859987337	0.03336170001421124
1	13.259040799923241	stim	246		2	ambiguous	ambiguous	preferred	600.0		18.934840299887583	0.03370500006712973
1	13.29274579999037	stim	247		2	ambiguous	ambiguous	preferred	600.0		18.968545299954712	0.03361189994029701
1	13.326357699930668	stim	248		2	ambiguous	ambiguous	preferred	600.0		19.00215719989501	0.033414200064726174
1	13.359771899995394	stim	249		2	ambiguous	ambiguous	preferred	600.0		19.035571399959736	0.03323419997468591
1	13.39300609997008	stim	250		2	ambiguous	ambiguous	preferred	600.0		19.06880559993442	0.03365759993903339
1	13.426663699909113	stim	251		2	ambiguous	ambiguous	preferred	600.0		19.102463199873455	0.03334520000498742
1	13.4600088999141	stim	252		2	ambiguous	ambiguous	preferred	600.0		19.135808399878442	0.03356730006635189
1	13.493576199980453	stim	253		2	ambiguous	ambiguous	preferred	600.0		19.169375699944794	0.03307400003541261
1	13.526650200015865	stim	254		2	ambiguous	ambiguous	preferred	600.0		19.202449699980207	0.03381719999015331
1	13.560467400006019	stim	255		2	ambiguous	ambiguous	preferred	600.0		19.23626689997036	0.033231499954126775
1	13.593698899960145	stim	256		2	ambiguous	ambiguous	preferred	600.0		19.269498399924487	0.03338080004323274
1	13.627079700003378	stim	257		2	ambiguous	ambiguous	preferred	600.0		19.30287919996772	0.03337329998612404
1	13.660452999989502	stim	258		2	ambiguous	ambiguous	preferred	600.0		19.336252499953844	0.033290999941527843
1	13.69374399993103	stim	259		2	ambiguous	ambiguous	preferred	600.0		19.36954349989537	0.033351700054481626
1	13.727095699985512	stim	260		2	ambiguous	ambiguous	preferred	600.0		19.402895199949853	0.03356709994841367
1	13.760662799933925	stim	261		2	ambiguous	ambiguous	preferred	600.0		19.436462299898267	0.033067299984395504
1	13.79373009991832	stim	262		2	ambiguous	ambiguous	preferred	600.0		19.469529599882662	0.03346770000644028
1	13.827197799924761	stim	263		2	ambiguous	ambiguous	preferred	600.0		19.502997299889103	0.033547400031238794
1	13.860745199956	stim	264		2	ambiguous	ambiguous	preferred	600.0		19.53654469992034	0.03352569998241961
1	13.89427089993842	stim	265		2	ambiguous	ambiguous	preferred	600.0		19.57007039990276	0.03344849997665733
1	13.927719399915077	stim	266		2	ambiguous	ambiguous	preferred	600.0		19.60351889987942	0.03382840007543564
1	13.961547799990512	stim	267		2	ambiguous	ambiguous	preferred	600.0		19.637347299954854	0.03300739999394864
1	13.994555199984461	stim	268		2	ambiguous	ambiguous	preferred	600.0		19.670354699948803	0.03344309993553907
1	14.02799829992	stim	269		2	ambiguous	ambiguous	preferred	600.0		19.70379779988434	0.03337030007969588
1	14.061368599999696	stim	270		2	ambiguous	ambiguous	preferred	600.0		19.737168099964038	0.03340439999010414
1	14.0947729999898	stim	271		2	ambiguous	ambiguous	preferred	600.0		19.77057249995414	0.033641999936662614
1	14.128414999926463	stim	272		2	ambiguous	ambiguous	preferred	600.0		19.804214499890804	0.03340439999010414
1	14.161819399916567	stim	273		2	ambiguous	ambiguous	preferred	600.0		19.83761889988091	0.03370650007855147
1	14.195525899995118	stim	274		2	ambiguous	ambiguous	preferred	600.0		19.87132539995946	0.03324219991918653
1	14.228768099914305	stim	275		2	ambiguous	ambiguous	preferred	600.0		19.904567599878646	0.03326779999770224
1	14.262035899912007	stim	276		2	ambiguous	ambiguous	preferred	600.0		19.93783539987635	0.033502900041639805
1	14.295538799953647	stim	277		2	ambiguous	ambiguous	preferred	600.0		19.97133829991799	0.0335037000477314
1	14.329042500001378	stim	278		2	ambiguous	ambiguous	preferred	600.0		20.00484199996572	0.033179399906657636
1	14.362221899908036	stim	279		2	ambiguous	ambiguous	preferred	600.0		20.038021399872378	0.03333800006657839
1	14.395559899974614	stim	280		2	ambiguous	ambiguous	preferred	600.0		20.071359399938956	0.033373799989931285
1	14.428933699964546	stim	281		2	ambiguous	ambiguous	preferred	600.0		20.104733199928887	0.033271500025875866
1	14.462205199990422	stim	282		2	ambiguous	ambiguous	preferred	600.0		20.138004699954763	0.0333284999942407
1	14.495533699984662	stim	283		2	ambiguous	ambiguous	preferred	600.0		20.171333199949004	0.03383259999100119
1	14.529366299975663	stim	284		2	ambiguous	ambiguous	preferred	600.0		20.205165799940005	0.03289769997354597
1	14.56226399994921	stim	285		2	ambiguous	ambiguous	preferred	600.0		20.23806349991355	0.03342089999932796
1	14.595684899948537	stim	286		2	ambiguous	ambiguous	preferred	600.0		20.27148439991288	0.03340469999238849
1	14.629089599940926	stim	287		2	ambiguous	ambiguous	preferred	600.0		20.304889099905267	0.0334220000077039
1	14.66251159994863	stim	288		2	ambiguous	ambiguous	preferred	600.0		20.33831109991297	0.03362630004994571
1	14.696137899998575	stim	289		2	ambiguous	ambiguous	preferred	600.0		20.371937399962917	0.03339080000296235
1	14.729528700001538	stim	290		2	ambiguous	ambiguous	preferred	600.0		20.40532819996588	0.0331109999679029
1	14.76263969996944	stim	291		2	ambiguous	ambiguous	preferred	600.0		20.438439199933782	0.03332559997215867
1	14.7959652999416	stim	292		2	ambiguous	ambiguous	preferred	600.0		20.47176479990594	0.03364759997930378
1	14.829612899920903	stim	293		2	ambiguous	ambiguous	preferred	600.0		20.505412399885245	0.033184500061906874
1	14.86279739998281	stim	294		2	ambiguous	ambiguous	preferred	600.0		20.53859689994715	0.03392730001360178
1	14.896724699996412	stim	295		2	ambiguous	ambiguous	preferred	600.0		20.572524199960753	0.03333609993569553
1	14.930060799932107	stim	296		2	ambiguous	ambiguous	preferred	600.0		20.60586029989645	0.033584500080905855
1	14.963645300013013	stim	297		2	ambiguous	ambiguous	preferred	600.0		20.639444799977355	0.03344429994467646
1	14.99708959995769	stim	298		2	ambiguous	ambiguous	preferred	600.0		20.67288909992203	0.03330330003518611
1	15.030392899992876	stim	299		2	ambiguous	ambiguous	preferred	600.0		20.706192399957217	0.03350649995263666
1	15.063899399945512	stim	300		2	ambiguous	ambiguous	preferred	600.0		20.739698899909854	0.03398479998577386
1	15.097884199931286	stim	301		2	ambiguous	ambiguous	preferred	600.0		20.773683699895628	0.032883599982596934
1	15.130767799913883	stim	302		2	ambiguous	ambiguous	preferred	600.0		20.806567299878225	0.033538600080646574
1	15.16430639999453	stim	303		2	ambiguous	ambiguous	preferred	600.0		20.84010589995887	0.033302699914202094
1	15.197609099908732	stim	304		2	ambiguous	ambiguous	preferred	600.0		20.873408599873073	0.033483700011856854
1	15.231092799920589	stim	305		2	ambiguous	ambiguous	preferred	600.0		20.90689229988493	0.03340910002589226
1	15.264501899946481	stim	306		2	ambiguous	ambiguous	preferred	600.0		20.940301399910823	0.033447999972850084
1	15.297949899919331	stim	307		2	ambiguous	ambiguous	preferred	600.0		20.973749399883673	0.03351410001050681
1	15.331463999929838	stim	308		2	ambiguous	ambiguous	preferred	600.0		21.00726349989418	0.03339720005169511
1	15.364861199981533	stim	309		2	ambiguous	ambiguous	preferred	600.0		21.040660699945875	0.03329870000015944
1	15.398159899981692	stim	310		2	ambiguous	ambiguous	preferred	600.0		21.073959399946034	0.033366099931299686
1	15.431525999912992	stim	311		2	ambiguous	ambiguous	preferred	600.0		21.107325499877334	0.03568140009883791
1	15.46720740001183	stim	312		2	ambiguous	ambiguous	preferred	600.0		21.14300689997617	0.03146500000730157
1	15.498672400019132	stim	313		2	ambiguous	ambiguous	preferred	600.0		21.174471899983473	0.03324109991081059
1	15.531913499929942	stim	314		2	ambiguous	ambiguous	preferred	600.0		21.207712999894284	0.03540569997858256
1	15.567319199908525	stim	315		2	ambiguous	ambiguous	preferred	600.0		21.243118699872866	0.033219900098629296
1	15.600539100007154	stim	316		2	ambiguous	ambiguous	preferred	600.0		21.276338599971496	0.03361129993572831
1	15.634150399942882	stim	317		2	ambiguous	ambiguous	preferred	600.0		21.309949899907224	0.03319350001402199
1	15.667343899956904	stim	318		2	ambiguous	ambiguous	preferred	600.0		21.343143399921246	0.03361789998598397
1	15.700961799942888	stim	319		2	ambiguous	ambiguous	preferred	600.0		21.37676129990723	0.03298010001890361
1	15.733941899961792	stim	320		2	ambiguous	ambiguous	preferred	600.0		21.409741399926133	0.03349159995559603
1	15.767433499917388	stim	321		2	ambiguous	ambiguous	preferred	600.0		21.44323299988173	0.03338530007749796
1	15.800818799994886	stim	322		2	ambiguous	ambiguous	preferred	600.0		21.476618299959227	0.03317289997357875
1	15.833991699968465	stim	323		2	ambiguous	ambiguous	preferred	600.0		21.509791199932806	0.03320609999354929
1	15.867197799962014	stim	324		2	ambiguous	ambiguous	preferred	600.0		21.542997299926355	0.03345149999950081
1	15.900649299961515	stim	325		2	ambiguous	ambiguous	preferred	600.0		21.576448799925856	0.0331418999703601
1	15.933791199931875	stim	326		2	ambiguous	ambiguous	preferred	600.0		21.609590699896216	0.03337720001582056
1	15.967168399947695	stim	327		2	ambiguous	ambiguous	preferred	600.0		21.642967899912037	0.033320700051262975
1	16.00048909999896	stim	328		2	ambiguous	ambiguous	preferred	600.0		21.6762885999633	0.033348299912177026
1	16.033837399911135	stim	329		2	ambiguous	ambiguous	preferred	600.0		21.709636899875477	0.03339440003037453
1	16.06723179994151	stim	330		2	ambiguous	ambiguous	preferred	600.0		21.74303129990585	0.03338190005160868
1	16.10061369999312	stim	331		2	ambiguous	ambiguous	preferred	600.0		21.77641319995746	0.03368090000003576
1	16.134294599993154	stim	332		2	ambiguous	ambiguous	preferred	600.0		21.810094099957496	0.032904200023040175
1	16.167198800016195	stim	333		2	ambiguous	ambiguous	preferred	600.0		21.842998299980536	0.033296999987214804
1	16.20049580000341	stim	334		2	ambiguous	ambiguous	preferred	600.0		21.87629529996775	0.03368100000079721
1	16.234176800004207	stim	335		2	ambiguous	ambiguous	preferred	600.0		21.909976299968548	0.033394399913959205
1	16.267571199918166	stim	336		2	ambiguous	ambiguous	preferred	600.0		21.943370699882507	0.033381600049324334
1	16.30095279996749	stim	337		2	ambiguous	ambiguous	preferred	600.0		21.97675229993183	0.03337499999906868
1	16.33432779996656	stim	338		2	ambiguous	ambiguous	preferred	600.0		22.0101272999309	0.03319520002696663
1	16.367522999993525	stim	339		2	ambiguous	ambiguous	preferred	600.0		22.043322499957867	0.03333309991285205
1	16.400856099906377	stim	340		2	ambiguous	ambiguous	preferred	600.0		22.07665559987072	0.0335423001088202
1	16.434398400015198	stim	341		2	ambiguous	ambiguous	preferred	600.0		22.11019789997954	0.033280399977229536
1	16.467678799992427	stim	342		2	ambiguous	ambiguous	preferred	600.0		22.14347829995677	0.033096699975430965
1	16.500775499967858	stim	343		2	ambiguous	ambiguous	preferred	600.0		22.1765749999322	0.033711600000970066
1	16.53448709996883	stim	344		2	ambiguous	ambiguous	preferred	600.0		22.21028659993317	0.03331359999720007
1	16.56780069996603	stim	345		2	ambiguous	ambiguous	preferred	600.0		22.24360019993037	0.033415399957448244
1	16.601216099923477	stim	346		2	ambiguous	ambiguous	preferred	600.0		22.277015599887818	0.0333907000022009
1	16.634606799925677	stim	347		2	ambiguous	ambiguous	preferred	600.0		22.31040629989002	0.03340439999010414
1	16.66801119991578	stim	348		2	ambiguous	ambiguous	preferred	600.0		22.343810699880123	0.0336787000996992
1	16.70168990001548	stim	349		2	ambiguous	ambiguous	preferred	600.0		22.377489399979822	0.033313299994915724
1	16.735003200010397	stim	350		2	ambiguous	ambiguous	preferred	600.0		22.410802699974738	0.03366600000299513
1	16.76866920001339	stim	351		2	ambiguous	ambiguous	preferred	600.0		22.444468699977733	0.033329500001855195
1	16.801998700015247	stim	352		2	ambiguous	ambiguous	preferred	600.0		22.47779819997959	0.03348179999738932
1	16.835480500012636	stim	353		2	ambiguous	ambiguous	preferred	600.0		22.511279999976978	0.033284899895079434
1	16.868765399907716	stim	354		2	ambiguous	ambiguous	preferred	600.0		22.544564899872057	0.03327230003196746
1	16.902037699939683	stim	355		2	ambiguous	ambiguous	preferred	600.0		22.577837199904025	0.03349900001194328
1	16.935536699951626	stim	356		2	ambiguous	ambiguous	preferred	600.0		22.611336199915968	0.033520700060762465
1	16.96905740001239	stim	357		2	ambiguous	ambiguous	preferred	600.0		22.64485689997673	0.03345639992039651
1	17.002513799932785	stim	358		2	ambiguous	ambiguous	preferred	600.0		22.678313299897127	0.034049600013531744
1	17.036563399946317	stim	359		2	ambiguous	ambiguous	preferred	600.0		22.71236289991066	0.03306080005131662
1	17.069624199997634	stim	360		2	ambiguous	ambiguous	preferred	600.0		22.745423699961975	0.033545600017532706
1	17.103169800015166	stim	361		2	ambiguous	ambiguous	preferred	600.0		22.778969299979508	0.03419989999383688
1	17.137369700009003	stim	362		2	ambiguous	ambiguous	preferred	600.0		22.813169199973345	0.03282209997996688
1	17.17019179998897	stim	363		2	ambiguous	ambiguous	preferred	600.0		22.84599129995331	0.03365629992913455
1	17.203848099918105	stim	364		2	ambiguous	ambiguous	preferred	600.0		22.879647599882446	0.033491000067442656
1	17.237339099985547	stim	365		2	ambiguous	ambiguous	preferred	600.0		22.91313859994989	0.03325600002426654
1	17.270595100009814	stim	366		2	ambiguous	ambiguous	preferred	600.0		22.946394599974155	0.033407699898816645
1	17.30400279990863	stim	367		2	ambiguous	ambiguous	preferred	600.0		22.979802299872972	0.03325660002883524
1	17.337259399937466	stim	368		2	ambiguous	ambiguous	preferred	600.0		23.013058899901807	0.03330800007097423
1	17.37056740000844	stim	369		2	ambiguous	ambiguous	preferred	600.0		23.04636689997278	0.033354699960909784
1	17.40392209996935	stim	370		2	ambiguous	ambiguous	preferred	600.0		23.07972159993369	0.03347419993951917
1	17.43739629990887	stim	371		2	ambiguous	ambiguous	preferred	600.0		23.11319579987321	0.033283500000834465
1	17.470679799909703	stim	372		2	ambiguous	ambiguous	preferred	600.0		23.146479299874045	0.0333358000498265
1	17.50401559995953	stim	373		2	ambiguous	ambiguous	preferred	600.0		23.17981509992387	0.03354940004646778
1	17.537565000005998	stim	374		2	ambiguous	ambiguous	preferred	600.0		23.21336449997034	0.034025799948722124
1	17.57159079995472	stim	375		2	ambiguous	ambiguous	preferred	600.0		23.24739029991906	0.03334039996843785
1	17.604931199923158	stim	376		2	ambiguous	ambiguous	preferred	600.0		23.2807306998875	0.033651000005193055
1	17.63858219992835	stim	377		2	ambiguous	ambiguous	preferred	600.0		23.314381699892692	0.033085100003518164
1	17.67166729993187	stim	378		2	ambiguous	ambiguous	preferred	600.0		23.34746679989621	0.03332759998738766
1	17.704994899919257	stim	379		2	ambiguous	ambiguous	preferred	600.0		23.380794399883598	0.03338230005465448
1	17.73837719997391	stim	380		2	ambiguous	ambiguous	preferred	600.0		23.414176699938253	0.03359939996153116
1	17.771976599935442	stim	381		2	ambiguous	ambiguous	preferred	600.0		23.447776099899784	0.03350180003326386
1	17.805478399968706	stim	382		2	ambiguous	ambiguous	preferred	600.0		23.481277899933048	0.03372169996146113
1	17.839200099930167	stim	383		2	ambiguous	ambiguous	preferred	600.0		23.51499959989451	0.03341610007919371
1	17.87261620000936	stim	384		2	ambiguous	ambiguous	preferred	600.0		23.548415699973702	0.03330739994999021
1	17.90592359995935	stim	385		2	ambiguous	ambiguous	preferred	600.0		23.581723099923693	0.03335519996471703
1	17.939278799924068	stim	386		2	ambiguous	ambiguous	preferred	600.0		23.61507829988841	0.033454100019298494
1	17.972732899943367	stim	387		2	ambiguous	ambiguous	preferred	600.0		23.648532399907708	0.03350909997243434
1	18.0062419999158	stim	388		2	ambiguous	ambiguous	preferred	600.0		23.682041499880143	0.03347390005365014
1	18.03971589996945	stim	389		2	ambiguous	ambiguous	preferred	600.0		23.715515399933793	0.03312679997179657
1	18.072842699941248	stim	390		2	ambiguous	ambiguous	preferred	600.0		23.74864219990559	0.03330330003518611
1	18.106145999976434	stim	391		2	ambiguous	ambiguous	preferred	600.0		23.781945499940775	0.033551399945281446
1	18.139697399921715	stim	392		2	ambiguous	ambiguous	preferred	600.0		23.815496899886057	0.033465799991972744
1	18.173163199913688	stim	393		2	ambiguous	ambiguous	preferred	600.0		23.84896269987803	0.03314610000234097
1	18.20630929991603	stim	394		2	ambiguous	ambiguous	preferred	600.0		23.88210879988037	0.03346380009315908
1	18.239773100009188	stim	395		2	ambiguous	ambiguous	preferred	600.0		23.91557259997353	0.033327699988149107
1	18.273100799997337	stim	396		2	ambiguous	ambiguous	preferred	600.0		23.94890029996168	0.033295299974270165
1	18.306396099971607	stim	397		2	ambiguous	ambiguous	preferred	600.0		23.98219559993595	0.03339670004788786
1	18.339792800019495	stim	398		2	ambiguous	ambiguous	preferred	600.0		24.015592299983837	0.033327699988149107
1	18.373120500007644	stim	399		2	ambiguous	ambiguous	preferred	600.0		24.048919999971986	0.03323569998610765
1	18.406356199993752	stim	400		2	ambiguous	ambiguous	preferred	600.0		24.082155699958093	0.033604900003410876
1	18.439961099997163	stim	401		2	ambiguous	ambiguous	preferred	600.0		24.115760599961504	0.03333769994787872
1	18.47329879994504	stim	402		2	ambiguous	ambiguous	preferred	600.0		24.149098299909383	0.03365950006991625
1	18.506958300014958	stim	403		2	ambiguous	ambiguous	preferred	600.0		24.1827577999793	0.03338459995575249
1	18.54034289997071	stim	404		2	ambiguous	ambiguous	preferred	600.0		24.216142399935052	0.03320980002172291
1	18.573552699992433	stim	405		2	ambiguous	ambiguous	preferred	600.0		24.249352199956775	0.03391350002493709
1	18.60746620001737	stim	406		2	ambiguous	ambiguous	preferred	600.0		24.283265699981712	0.03338789998088032
1	18.64085409999825	stim	407		2	ambiguous	ambiguous	preferred	600.0		24.316653599962592	0.03335799998603761
1	18.674212099984288	stim	408		2	ambiguous	ambiguous	preferred	600.0		24.35001159994863	0.03321789996698499
1	18.707429999951273	stim	409		2	ambiguous	ambiguous	preferred	600.0		24.383229499915615	0.0335352000547573
1	18.74096520000603	stim	410		2	ambiguous	ambiguous	preferred	600.0		24.416764699970372	0.03332549997139722
1	18.774290699977428	stim	411		2	ambiguous	ambiguous	preferred	600.0		24.45009019994177	0.033582799951545894
1	18.807873499928974	stim	412		2	ambiguous	ambiguous	preferred	600.0		24.483672999893315	0.033706000074744225
1	18.841579500003718	stim	413		2	ambiguous	ambiguous	preferred	600.0		24.51737899996806	0.05001749994698912
1	18.891596999950707	stim	414		2	ambiguous	ambiguous	preferred	600.0		24.56739649991505	0.03323349996935576
1	18.924830499920063	stim	415		2	ambiguous	ambiguous	preferred	600.0		24.600629999884404	0.034096900024451315
1	18.958927399944514	stim	416		2	ambiguous	ambiguous	preferred	600.0		24.634726899908856	0.03342530003283173
1	18.992352699977346	stim	417		2	ambiguous	ambiguous	preferred	600.0		24.668152199941687	0.03334830002859235
1	19.025701000005938	stim	418		2	ambiguous	ambiguous	preferred	600.0		24.70150049997028	0.03348310000728816
1	19.059184100013226	stim	419		2	ambiguous	ambiguous	preferred	600.0		24.734983599977568	0.03306799998972565
1	19.092252100002952	stim	420		2	ambiguous	ambiguous	preferred	600.0		24.768051599967293	0.03347479994408786
1	19.12572689994704	stim	421		2	ambiguous	ambiguous	preferred	600.0		24.80152639991138	0.03318160003982484
1	19.158908499986865	stim	422		2	ambiguous	ambiguous	preferred	600.0		24.834707999951206	0.03315039991866797
1	19.192058899905533	stim	423		2	ambiguous	ambiguous	preferred	600.0		24.867858399869874	0.03355270007159561
1	19.225611599977128	stim	424		2	ambiguous	ambiguous	preferred	600.0		24.90141109994147	0.0335462000221014
1	19.25915779999923	stim	425		2	ambiguous	ambiguous	preferred	600.0		24.93495729996357	0.03319119999650866
1	19.29234899999574	stim	426		2	ambiguous	ambiguous	preferred	600.0		24.96814849996008	0.03350939997471869
1	19.325858399970457	stim	427		2	ambiguous	ambiguous	preferred	600.0		25.0016578999348	0.033532400033436716
1	19.359390800003894	stim	428		2	ambiguous	ambiguous	preferred	600.0		25.035190299968235	0.03326329996343702
1	19.39265409996733	stim	429		2	ambiguous	ambiguous	preferred	600.0		25.068453599931672	0.03346519998740405
1	19.426119299954735	stim	430		2	ambiguous	ambiguous	preferred	600.0		25.101918799919076	0.033486500033177435
1	19.459605799987912	stim	431		2	ambiguous	ambiguous	preferred	600.0		25.135405299952254	0.03328869992401451
1	19.492894499911927	stim	432		2	ambiguous	ambiguous	preferred	600.0		25.168693999876268	0.033059700042940676
1	19.525954199954867	stim	433		2	ambiguous	ambiguous	preferred	600.0		25.20175369991921	0.0336754999589175
1	19.559629699913785	stim	434		2	ambiguous	ambiguous	preferred	600.0		25.235429199878126	0.033381400047801435
1	19.593011099961586	stim	435		2	ambiguous	ambiguous	preferred	600.0		25.268810599925928	0.03397630003746599
1	19.626987399999052	stim	436		2	ambiguous	ambiguous	preferred	600.0		25.302786899963394	0.03398079995531589
1	19.660968199954368	stim	437		2	ambiguous	ambiguous	preferred	600.0		25.33676769991871	0.0335583999985829
1	19.69452659995295	stim	438		2	ambiguous	ambiguous	preferred	600.0		25.370326099917293	0.03283369995187968
1	19.72736029990483	stim	439		2	ambiguous	ambiguous	preferred	600.0		25.403159799869172	0.033375400002114475
1	19.760735699906945	stim	440		2	ambiguous	ambiguous	preferred	600.0		25.436535199871287	0.03336570004466921
1	19.794101399951614	stim	441		2	ambiguous	ambiguous	preferred	600.0		25.469900899915956	0.03335389995481819
1	19.827455299906433	stim	442		2	ambiguous	ambiguous	preferred	600.0		25.503254799870774	0.033800900098867714
1	19.8612562000053	stim	443		2	ambiguous	ambiguous	preferred	600.0		25.537055699969642	0.033561899908818305
1	19.89481809991412	stim	444		2	ambiguous	ambiguous	preferred	600.0		25.57061759987846	0.03358110005501658
1	19.928399199969135	stim	445		2	ambiguous	ambiguous	preferred	600.0		25.604198699933477	0.03319580003153533
1	19.96159500000067	stim	446		2	ambiguous	ambiguous	preferred	600.0		25.637394499965012	0.033686399925500154
1	19.99528139992617	stim	447		2	ambiguous	ambiguous	preferred	600.0		25.671080899890512	0.033145900000818074
1	20.02842729992699	stim	448		2	ambiguous	ambiguous	preferred	600.0		25.70422679989133	0.03317589999642223
1	20.06160319992341	stim	449		2	ambiguous	ambiguous	preferred	600.0		25.737402699887753	0.03366990003269166
1	20.095273099956103	stim	450		2	ambiguous	ambiguous	preferred	600.0		25.771072599920444	0.03369009995367378
1	20.128963199909776	stim	451		2	ambiguous	ambiguous	preferred	600.0		25.804762699874118	0.03349340008571744
1	20.162456599995494	stim	452		2	ambiguous	ambiguous	preferred	600.0		25.838256099959835	0.0332274999236688
1	20.195684099919163	stim	453		2	ambiguous	ambiguous	preferred	600.0		25.871483599883504	0.033735600067302585
1	20.229419699986465	stim	454		2	ambiguous	ambiguous	preferred	600.0		25.905219199950807	0.03326039994135499
1	20.26268009992782	stim	455		2	ambiguous	ambiguous	preferred	600.0		25.938479599892162	0.033485000021755695
1	20.296165099949576	stim	456		2	ambiguous	ambiguous	preferred	600.0		25.971964599913917	0.033385499962605536
1	20.32955059991218	stim	457		2	ambiguous	ambiguous	preferred	600.0		26.005350099876523	0.0333366000559181
1	20.3628871999681	stim	458		2	ambiguous	ambiguous	preferred	600.0		26.03868669993244	0.033353099948726594
1	20.396240299916826	stim	459		2	ambiguous	ambiguous	preferred	600.0		26.072039799881168	0.03347740008030087
1	20.429717699997127	stim	460		2	ambiguous	ambiguous	preferred	600.0		26.10551719996147	0.03341949998866767
1	20.463137199985795	stim	461		2	ambiguous	ambiguous	preferred	600.0		26.138936699950136	0.03346820001024753
1	20.496605399996042	stim	462		2	ambiguous	ambiguous	preferred	600.0		26.172404899960384	0.03319959994405508
1	20.529804999940097	stim	463		2	ambiguous	ambiguous	preferred	600.0		26.20560449990444	0.03344270004890859
1	20.563247699989006	stim	464		2	ambiguous	ambiguous	preferred	600.0		26.239047199953347	0.033240700024180114
1	20.596488400013186	stim	465		2	ambiguous	ambiguous	preferred	600.0		26.272287899977528	0.033410599920898676
1	20.629898999934085	stim	466		2	ambiguous	ambiguous	preferred	600.0		26.305698499898426	0.033387199975550175
1	20.663286199909635	stim	467		2	ambiguous	ambiguous	preferred	600.0		26.339085699873976	0.03331010008696467
1	20.6965962999966	stim	468		2	ambiguous	ambiguous	preferred	600.0		26.37239579996094	0.0332551000174135
1	20.729851400014013	stim	469		2	ambiguous	ambiguous	preferred	600.0		26.405650899978355	0.033350199926644564
1	20.763201599940658	stim	470		2	ambiguous	ambiguous	preferred	600.0		26.439001099905	0.03333630005363375
1	20.79653789999429	stim	471		2	ambiguous	ambiguous	preferred	600.0		26.472337399958633	0.03337780002038926
1	20.82991570001468	stim	472		2	ambiguous	ambiguous	preferred	600.0		26.505715199979022	0.033305699937045574
1	20.863221399951726	stim	473		2	ambiguous	ambiguous	preferred	600.0		26.539020899916068	0.03334359999280423
1	20.89656499994453	stim	474		2	ambiguous	ambiguous	preferred	600.0		26.572364499908872	0.03328880004119128
1	20.92985379998572	stim	475		2	ambiguous	ambiguous	preferred	600.0		26.605653299950063	0.033390099997632205
1	20.963243899983354	stim	476		2	ambiguous	ambiguous	preferred	600.0		26.639043399947695	0.033588799997232854
1	20.996832699980587	stim	477		2	ambiguous	ambiguous	preferred	600.0		26.67263219994493	0.0338858999311924
1	21.03071859991178	stim	478		2	ambiguous	ambiguous	preferred	600.0		26.70651809987612	0.0330321000656113
1	21.06375069997739	stim	479		2	ambiguous	ambiguous	preferred	600.0		26.739550199941732	0.033158999984152615
1	21.096909699961543	stim	480		2	ambiguous	ambiguous	preferred	600.0		26.772709199925885	0.03332110005430877
1	21.130230800015852	stim	481		2	ambiguous	ambiguous	preferred	600.0		26.806030299980193	0.03350309992674738
1	21.1637338999426	stim	482		2	ambiguous	ambiguous	preferred	600.0		26.83953339990694	0.03347779996693134
1	21.19721169990953	stim	483		2	ambiguous	ambiguous	preferred	600.0		26.873011199873872	0.033209600020200014
1	21.23042129992973	stim	484		2	ambiguous	ambiguous	preferred	600.0		26.906220799894072	0.03334460000041872
1	21.26376589993015	stim	485		2	ambiguous	ambiguous	preferred	600.0		26.93956539989449	0.03372890001628548
1	21.297494799946435	stim	486		2	ambiguous	ambiguous	preferred	600.0		26.973294299910776	0.03365320002194494
1	21.33114799996838	stim	487		2	ambiguous	ambiguous	preferred	600.0		27.00694749993272	0.033326199976727366
1	21.364474199945107	stim	488		2	ambiguous	ambiguous	preferred	600.0		27.04027369990945	0.03359840007033199
1	21.39807260001544	stim	489		2	ambiguous	ambiguous	preferred	600.0		27.07387209997978	0.03327649994753301
1	21.431349099962972	stim	490		2	ambiguous	ambiguous	preferred	600.0		27.107148599927314	0.033267199993133545
1	21.464616299956106	stim	491		2	ambiguous	ambiguous	preferred	600.0		27.140415799920447	0.03332429996225983
1	21.497940599918365	stim	492		2	ambiguous	ambiguous	preferred	600.0		27.173740099882707	0.03339530003722757
1	21.531335899955593	stim	493		2	ambiguous	ambiguous	preferred	600.0		27.207135399919935	0.03329930000472814
1	21.56463519996032	stim	494		2	ambiguous	ambiguous	preferred	600.0		27.240434699924663	0.03360229998361319
1	21.598237499943934	stim	495		2	ambiguous	ambiguous	preferred	600.0		27.274036999908276	0.03341589996125549
1	21.63165339990519	stim	496		2	ambiguous	ambiguous	preferred	600.0		27.30745289986953	0.03549010003916919
1	21.66714349994436	stim	497		2	ambiguous	ambiguous	preferred	600.0		27.3429429999087	0.03324829996563494
1	21.700391799909994	stim	498		2	ambiguous	ambiguous	preferred	600.0		27.376191299874336	0.03340020007453859
1	21.733791999984533	stim	499		2	ambiguous	ambiguous	preferred	600.0		27.409591499948874	0.031180799938738346
1	21.76497279992327	stim	500		2	ambiguous	ambiguous	preferred	600.0		27.440772299887612	0.0355826000450179
1	21.80055539996829	stim	501		2	ambiguous	ambiguous	preferred	600.0		27.47635489993263	0.03336180001497269
1	21.83391719998326	stim	502		2	ambiguous	ambiguous	preferred	600.0		27.509716699947603	0.03308069997001439
1	21.866997899953276	stim	503		2	ambiguous	ambiguous	preferred	600.0		27.542797399917617	0.033232899964787066
1	21.900230799918063	stim	504		2	ambiguous	ambiguous	preferred	600.0		27.576030299882405	0.033388699986971915
1	21.933619499905035	stim	505		2	ambiguous	ambiguous	preferred	600.0		27.609418999869376	0.03364090004470199
1	21.967260399949737	stim	506		2	ambiguous	ambiguous	preferred	600.0		27.64305989991408	0.033137100050225854
1	22.000397499999963	stim	507		2	ambiguous	ambiguous	preferred	600.0		27.676196999964304	0.03326029994059354
1	22.033657799940556	stim	508		2	ambiguous	ambiguous	preferred	600.0		27.709457299904898	0.0334224000107497
1	22.067080199951306	stim	509		2	ambiguous	ambiguous	preferred	600.0		27.742879699915648	0.03332749998662621
1	22.100407699937932	stim	510		2	ambiguous	ambiguous	preferred	600.0		27.776207199902274	0.03324390004854649
1	22.13365159998648	stim	511		2	ambiguous	ambiguous	preferred	600.0		27.80945109995082	0.03367789997719228
1	22.16732949996367	stim	512		2	ambiguous	ambiguous	preferred	600.0		27.843128999928012	0.033015600056387484
1	22.20034510002006	stim	513		2	ambiguous	ambiguous	preferred	600.0		27.8761445999844	0.0333951999200508
1	22.23374029994011	stim	514		2	ambiguous	ambiguous	preferred	600.0		27.90953979990445	0.03345580003224313
1	22.267196099972352	stim	515		2	ambiguous	ambiguous	preferred	600.0		27.942995599936694	0.033184099942445755
1	22.300380199914798	stim	516		2	ambiguous	ambiguous	preferred	600.0		27.97617969987914	0.033137800055556
1	22.333517999970354	stim	517		2	ambiguous	ambiguous	preferred	600.0		28.009317499934696	0.03358309995383024
1	22.367101099924184	stim	518		2	ambiguous	ambiguous	preferred	600.0		28.042900599888526	0.03340720001142472
1	22.40050829993561	stim	519		2	ambiguous	ambiguous	preferred	600.0		28.07630779989995	0.0332860000198707
1	22.43379429995548	stim	520		2	ambiguous	ambiguous	preferred	600.0		28.10959379991982	0.0331729999743402
1	22.46696729992982	stim	521		2	ambiguous	ambiguous	preferred	600.0		28.14276679989416	0.03341789997648448
1	22.500385199906304	stim	522		2	ambiguous	ambiguous	preferred	600.0		28.176184699870646	0.03337210009340197
1	22.533757299999706	stim	523		2	ambiguous	ambiguous	preferred	600.0		28.209556799964048	0.03336180001497269
1	22.56711910001468	stim	524		2	ambiguous	ambiguous	preferred	600.0		28.24291859997902	0.033693699981085956
1	22.600812799995765	stim	525		2	ambiguous	ambiguous	preferred	600.0		28.276612299960107	0.03294079995248467
1	22.63375359994825	stim	526		2	ambiguous	ambiguous	preferred	600.0		28.30955309991259	0.03326459997333586
1	22.667018199921586	stim	527		2	ambiguous	ambiguous	preferred	600.0		28.342817699885927	0.0337647000560537
1	22.70078289997764	stim	528		2	ambiguous	ambiguous	preferred	600.0		28.37658239994198	0.03333599993493408
1	22.734118899912573	stim	529		2	ambiguous	ambiguous	preferred	600.0		28.409918399876915	0.03389770002104342
1	22.768016599933617	stim	530		2	ambiguous	ambiguous	preferred	600.0		28.44381609989796	0.03317660000175238
1	22.80119319993537	stim	531		2	ambiguous	ambiguous	preferred	600.0		28.47699269989971	0.03324909997172654
1	22.834442299907096	stim	532		2	ambiguous	ambiguous	preferred	600.0		28.510241799871437	0.03330670006107539
1	22.86774899996817	stim	533		2	ambiguous	ambiguous	preferred	600.0		28.543548499932513	0.03354330000001937
1	22.90129229996819	stim	534		2	ambiguous	ambiguous	preferred	600.0		28.577091799932532	0.03339220001362264
1	22.934684499981813	stim	535		2	ambiguous	ambiguous	preferred	600.0		28.610483999946155	0.033690699958242476
1	22.968375199940056	stim	536		2	ambiguous	ambiguous	preferred	600.0		28.644174699904397	0.03327979997266084
1	23.001654999912716	stim	537		2	ambiguous	ambiguous	preferred	600.0		28.677454499877058	0.03367220005020499
1	23.03532719996292	stim	538		2	ambiguous	ambiguous	preferred	600.0		28.711126699927263	0.03334470000118017
1	23.0686718999641	stim	539		2	ambiguous	ambiguous	preferred	600.0		28.744471399928443	0.033732600044459105
1	23.10240450000856	stim	540		2	ambiguous	ambiguous	preferred	600.0		28.778203999972902	0.033634599996730685
1	23.13603910000529	stim	541		2	ambiguous	ambiguous	preferred	600.0		28.811838599969633	0.033029799931682646
1	23.169068899936974	stim	542		2	ambiguous	ambiguous	preferred	600.0		28.844868399901316	0.03345039999112487
1	23.2025192999281	stim	543		2	ambiguous	ambiguous	preferred	600.0		28.87831879989244	0.03322159999515861
1	23.235740899923258	stim	544		2	ambiguous	ambiguous	preferred	600.0		28.9115403998876	0.03332879999652505
1	23.269069699919783	stim	545		2	ambiguous	ambiguous	preferred	600.0		28.944869199884124	0.033815700095146894
1	23.30288540001493	stim	546		2	ambiguous	ambiguous	preferred	600.0		28.97868489997927	0.03358209994621575
1	23.336467499961145	stim	547		2	ambiguous	ambiguous	preferred	600.0		29.012266999925487	0.03362050000578165
1	23.370087999966927	stim	548		2	ambiguous	ambiguous	preferred	600.0		29.04588749993127	0.03326779999770224
1	23.40335579996463	stim	549		2	ambiguous	ambiguous	preferred	600.0		29.07915529992897	0.03336460003629327
1	23.436720400000922	stim	550		2	ambiguous	ambiguous	preferred	600.0		29.112519899965264	0.03331580001395196
1	23.470036200014874	stim	551		2	ambiguous	ambiguous	preferred	600.0		29.145835699979216	0.033345499890856445
1	23.50338169990573	stim	552		2	ambiguous	ambiguous	preferred	600.0		29.179181199870072	0.03344590007327497
1	23.536827599979006	stim	553		2	ambiguous	ambiguous	preferred	600.0		29.212627099943347	0.04981909994967282
1	23.58664669992868	stim	554		2	ambiguous	ambiguous	preferred	600.0		29.26244619989302	0.033482200000435114
1	23.620128899929114	stim	555		2	ambiguous	ambiguous	preferred	600.0		29.295928399893455	0.03332590009085834
1	23.653454800019972	stim	556		2	ambiguous	ambiguous	preferred	600.0		29.329254299984314	0.03340529999695718
1	23.68686010001693	stim	557		2	ambiguous	ambiguous	preferred	600.0		29.36265959998127	0.0338976999046281
1	23.720757799921557	stim	558		2	ambiguous	ambiguous	preferred	600.0		29.3965572998859	0.033378200023435056
1	23.754135999944992	stim	559		2	ambiguous	ambiguous	preferred	600.0		29.429935499909334	0.033430200070142746
1	23.787566200015135	stim	560		2	ambiguous	ambiguous	preferred	600.0		29.463365699979477	0.033480399986729026
1	23.821046600001864	stim	561		2	ambiguous	ambiguous	preferred	600.0		29.496846099966206	0.03316669992636889
1	23.854213299928233	stim	562		2	ambiguous	ambiguous	preferred	600.0		29.530012799892575	0.03333590005058795
1	23.88754919997882	stim	563		2	ambiguous	ambiguous	preferred	600.0		29.563348699943163	0.03348740004003048
1	23.92103660001885	stim	564		2	ambiguous	ambiguous	preferred	600.0		29.596836099983193	0.03313559992238879
1	23.95417219994124	stim	565		2	ambiguous	ambiguous	preferred	600.0		29.62997169990558	0.033334100036881864
1	23.987506299978122	stim	566		2	ambiguous	ambiguous	preferred	600.0		29.663305799942464	0.033363700029440224
1	24.020870000007562	stim	567		2	ambiguous	ambiguous	preferred	600.0		29.696669499971904	0.033333499915897846
1	24.05420349992346	stim	568		2	ambiguous	ambiguous	preferred	600.0		29.7300029998878	0.033430400071665645
1	24.087633899995126	stim	569		2	ambiguous	ambiguous	preferred	600.0		29.763433399959467	0.03338209993671626
1	24.121015999931842	stim	570		2	ambiguous	ambiguous	preferred	600.0		29.796815499896184	0.03329160006251186
1	24.154307599994354	stim	571		2	ambiguous	ambiguous	preferred	600.0		29.830107099958695	0.033413599943742156
1	24.187721199938096	stim	572		2	ambiguous	ambiguous	preferred	600.0		29.863520699902438	0.0333053000504151
1	24.22102649998851	stim	573		2	ambiguous	ambiguous	preferred	600.0		29.896825999952853	0.03337049996480346
1	24.254396999953315	stim	574		2	ambiguous	ambiguous	preferred	600.0		29.930196499917656	0.03328169998712838
1	24.287678699940443	stim	575		2	ambiguous	ambiguous	preferred	600.0		29.963478199904785	0.03352469997480512
1	24.321203399915248	stim	576		2	ambiguous	ambiguous	preferred	600.0		29.99700289987959	0.03317300009075552
1	24.354376400006004	stim	577		2	ambiguous	ambiguous	preferred	600.0		30.030175899970345	0.03328889992553741
1	24.38766529993154	stim	578		2	ambiguous	ambiguous	preferred	600.0		30.063464799895883	0.03338809998240322
1	24.421053399913944	stim	579		2	ambiguous	ambiguous	preferred	600.0		30.096852899878286	0.03341640008147806
1	24.454469799995422	stim	580		2	ambiguous	ambiguous	preferred	600.0		30.130269299959764	0.03343129996210337
1	24.487901099957526	stim	581		2	ambiguous	ambiguous	preferred	600.0		30.163700599921867	0.0333791000302881
1	24.521280199987814	stim	582		2	ambiguous	ambiguous	preferred	600.0		30.197079699952155	0.033200599951669574
1	24.554480799939483	stim	583		2	ambiguous	ambiguous	preferred	600.0		30.230280299903825	0.03333190002012998
1	24.587812699959613	stim	584		2	ambiguous	ambiguous	preferred	600.0		30.263612199923955	0.03345190000254661
1	24.62126459996216	stim	585		2	ambiguous	ambiguous	preferred	600.0		30.2970640999265	0.03320980002172291
1	24.654474399983883	stim	586		2	ambiguous	ambiguous	preferred	600.0		30.330273899948224	0.033359099994413555
1	24.687833499978296	stim	587		2	ambiguous	ambiguous	preferred	600.0		30.363632999942638	0.03359450004063547
1	24.721428000018932	stim	588		2	ambiguous	ambiguous	preferred	600.0		30.397227499983273	0.03331410000100732
1	24.75474210001994	stim	589		2	ambiguous	ambiguous	preferred	600.0		30.43054159998428	0.033807599917054176
1	24.788549699936993	stim	590		2	ambiguous	ambiguous	preferred	600.0		30.464349199901335	0.033790400018915534
1	24.82234009995591	stim	591		2	ambiguous	ambiguous	preferred	600.0		30.49813959992025	0.033039200003258884
1	24.855379299959168	stim	592		2	ambiguous	ambiguous	preferred	600.0		30.53117879992351	0.033892199979163706
1	24.88927149993833	stim	593		2	ambiguous	ambiguous	preferred	600.0		30.565070999902673	0.0333791000302881
1	24.92265059996862	stim	594		2	ambiguous	ambiguous	preferred	600.0		30.59845009993296	0.0332238000119105
1	24.95587439998053	stim	595		2	ambiguous	ambiguous	preferred	600.0		30.63167389994487	0.03333200002089143
1	24.98920640000142	stim	596		2	ambiguous	ambiguous	preferred	600.0		30.665005899965763	0.0333327999105677
1	25.02253919991199	stim	597		2	ambiguous	ambiguous	preferred	600.0		30.69833869987633	0.033310600090771914
1	25.05584980000276	stim	598		2	ambiguous	ambiguous	preferred	600.0		30.731649299967103	0.033590400009416044
1	25.089440200012177	stim	599		2	ambiguous	ambiguous	preferred	600.0		30.76523969997652	0.03310929995495826
0	25.122549499967135	stim	0		0	break	break	preferred	1.0		30.798348999931477	0.004982799990102649
2	25.127532299957238	stim	0		2	unambiguous	left	preferred	67.0		30.80333179992158	0.028984899981878698
2	25.156517199939117	stim	1		2	unambiguous	left	preferred	67.0		30.83231669990346	0.03349409997463226
2	25.19001129991375	stim	2		2	unambiguous	left	preferred	67.0		30.86581079987809	0.03336880006827414
2	25.223380099982023	stim	3		2	unambiguous	left	preferred	67.0		30.899179599946365	0.03361569996923208
2	25.256995799951255	stim	4		2	unambiguous	left	preferred	67.0		30.932795299915597	0.033883500029332936
2	25.29087929998059	stim	5		2	unambiguous	left	preferred	67.0		30.96667879994493	0.03295849997084588
2	25.323837799951434	stim	6		2	unambiguous	left	preferred	67.0		30.999637299915776	0.03344569995533675
2	25.35728349990677	stim	7		2	unambiguous	left	preferred	67.0		31.033082999871112	0.0333557000849396
2	25.39063919999171	stim	8		2	unambiguous	left	preferred	67.0		31.066438699956052	0.03356519993394613
2	25.424204399925657	stim	9		2	unambiguous	left	preferred	67.0		31.100003899889998	0.033099899999797344
2	25.457304299925454	stim	10		2	unambiguous	left	preferred	67.0		31.133103799889795	0.03405510005541146
2	25.491359399980865	stim	11		2	unambiguous	left	preferred	67.0		31.167158899945207	0.0329001999925822
2	25.524259599973448	stim	12		2	unambiguous	left	preferred	67.0		31.20005909993779	0.0335266999900341
2	25.55778629996348	stim	13		2	unambiguous	left	preferred	67.0		31.233585799927823	0.03340219997335225
2	25.591188499936834	stim	14		2	unambiguous	left	preferred	67.0		31.266987999901175	0.033632899983786047
2	25.62482139992062	stim	15		2	unambiguous	left	preferred	67.0		31.30062089988496	0.033540100092068315
2	25.65836150001269	stim	16		2	unambiguous	left	preferred	67.0		31.33416099997703	0.033289199927821755
2	25.69165069994051	stim	17		2	unambiguous	left	preferred	67.0		31.36745019990485	0.03338370006531477
2	25.725034400005825	stim	18		2	unambiguous	left	preferred	67.0		31.400833899970166	0.033226999919861555
2	25.758261399925686	stim	19		2	unambiguous	left	preferred	67.0		31.434060899890028	0.033939899993129075
2	25.792201299918815	stim	20		2	unambiguous	left	preferred	67.0		31.468000799883157	0.033695499994792044
2	25.825896799913608	stim	21		2	unambiguous	left	preferred	67.0		31.50169629987795	0.03328880004119128
2	25.8591855999548	stim	22		2	unambiguous	left	preferred	67.0		31.53498509991914	0.0337565999943763
2	25.892942199949175	stim	23		2	unambiguous	left	preferred	67.0		31.568741699913517	0.03334299998823553
2	25.92628519993741	stim	24		2	unambiguous	left	preferred	67.0		31.602084699901752	0.033319300040602684
2	25.959604499978013	stim	25		2	unambiguous	left	preferred	67.0		31.635403999942355	0.033518699929118156
2	25.99312319990713	stim	26		2	unambiguous	left	preferred	67.0		31.668922699871473	0.03354550001677126
2	26.026668699923903	stim	27		2	unambiguous	left	preferred	67.0		31.702468199888244	0.03310190001502633
2	26.05977059993893	stim	28		2	unambiguous	left	preferred	67.0		31.73557009990327	0.03335719997994602
2	26.093127799918875	stim	29		2	unambiguous	left	preferred	67.0		31.768927299883217	0.033755899989046156
2	26.12688369990792	stim	30		2	unambiguous	left	preferred	67.0		31.802683199872263	0.033440800034441054
2	26.160324499942362	stim	31		2	unambiguous	left	preferred	67.0		31.836123999906704	0.03344140003900975
2	26.193765899981372	stim	32		2	unambiguous	left	preferred	67.0		31.869565399945714	0.03369139996357262
2	26.227457299944945	stim	33		2	unambiguous	left	preferred	67.0		31.903256799909286	0.03309729997999966
2	26.260554599924944	stim	34		2	unambiguous	left	preferred	67.0		31.936354099889286	0.033253700006753206
2	26.293808299931698	stim	35		2	unambiguous	left	preferred	67.0		31.96960779989604	0.033353400067426264
2	26.327161699999124	stim	36		2	unambiguous	left	preferred	67.0		32.002961199963465	0.03355519997421652
2	26.36071689997334	stim	37		2	unambiguous	left	preferred	67.0		32.03651639993768	0.033529700012877584
2	26.394246599986218	stim	38		2	unambiguous	left	preferred	67.0		32.07004609995056	0.03353309992235154
2	26.42777969990857	stim	39		2	unambiguous	left	preferred	67.0		32.10357919987291	0.03324390004854649
2	26.461023599957116	stim	40		2	unambiguous	left	preferred	67.0		32.13682309992146	0.03333180001936853
2	26.494355399976484	stim	41		2	unambiguous	left	preferred	67.0		32.170154899940826	0.03320880001410842
2	26.527564199990593	stim	42		2	unambiguous	left	preferred	67.0		32.203363699954934	0.03349159995559603
2	26.56105579994619	stim	43		2	unambiguous	left	preferred	67.0		32.23685529991053	0.03332100005354732
2	26.594376799999736	stim	44		2	unambiguous	left	preferred	67.0		32.27017629996408	0.03333050000946969
2	26.627707300009206	stim	45		2	unambiguous	left	preferred	67.0		32.30350679997355	0.03356459992937744
2	26.661271899938583	stim	46		2	unambiguous	left	preferred	67.0		32.337071399902925	0.03352020005695522
2	26.69479209999554	stim	47		2	unambiguous	left	preferred	67.0		32.37059159995988	0.03314159996807575
2	26.727933699963614	stim	48		2	unambiguous	left	preferred	67.0		32.403733199927956	0.03332990000490099
2	26.761263599968515	stim	49		2	unambiguous	left	preferred	67.0		32.43706309993286	0.033567899954505265
2	26.79483149992302	stim	50		2	unambiguous	left	preferred	67.0		32.47063099988736	0.03305040008854121
2	26.827881900011562	stim	51		2	unambiguous	left	preferred	67.0		32.5036813999759	0.03382599994074553
2	26.861707899952307	stim	52		2	unambiguous	left	preferred	67.0		32.53750739991665	0.03388280002400279
2	26.89559069997631	stim	53		2	unambiguous	left	preferred	67.0		32.57139019994065	0.033136499929241836
2	26.928727199905552	stim	54		2	unambiguous	left	preferred	67.0		32.60452669986989	0.0336588000645861
2	26.962385999970138	stim	55		2	unambiguous	left	preferred	67.0		32.63818549993448	0.03391440003179014
2	26.996300400001928	stim	56		2	unambiguous	left	preferred	67.0		32.67209989996627	0.03349950001575053
2	27.02979990001768	stim	57		2	unambiguous	left	preferred	67.0		32.70559939998202	0.03354929992929101
2	27.06334919994697	stim	58		2	unambiguous	left	preferred	67.0		32.73914869991131	0.03345360001549125
2	27.09680279996246	stim	59		2	unambiguous	left	preferred	67.0		32.7726022999268	0.03345590003300458
2	27.130258699995466	stim	60		2	unambiguous	left	preferred	67.0		32.80605819995981	0.03342979995068163
2	27.163688499946147	stim	61		2	unambiguous	left	preferred	67.0		32.83948799991049	0.03333460004068911
2	27.197023099986836	stim	62		2	unambiguous	left	preferred	67.0		32.87282259995118	0.03360889991745353
2	27.23063199990429	stim	63		2	unambiguous	left	preferred	67.0		32.90643149986863	0.03335730009712279
2	27.263989300001413	stim	64		2	unambiguous	left	preferred	67.0		32.939788799965754	0.03351360000669956
2	27.297502900008112	stim	65		2	unambiguous	left	preferred	67.0		32.973302399972454	0.03341889998409897
2	27.33092179999221	stim	66		2	unambiguous	left	preferred	67.0		33.00672129995655	0.035775399999693036
3	27.366697199991904	stim	0		2	unambiguous	right	preferred	67.0		33.042496699956246	0.033511699992232025
3	27.400208899984136	stim	1		2	unambiguous	right	preferred	67.0		33.07600839994848	0.033390199998393655
3	27.43359909998253	stim	2		2	unambiguous	right	preferred	67.0		33.10939859994687	0.033366499934345484
3	27.466965599916875	stim	3		2	unambiguous	right	preferred	67.0		33.14276509988122	0.033090800046920776
3	27.500056399963796	stim	4		2	unambiguous	right	preferred	67.0		33.17585589992814	0.03354049997869879
3	27.533596899942495	stim	5		2	unambiguous	right	preferred	67.0		33.20939639990684	0.033452500007115304
3	27.56704939994961	stim	6		2	unambiguous	right	preferred	67.0		33.24284889991395	0.03331369999796152
3	27.60036309994757	stim	7		2	unambiguous	right	preferred	67.0		33.27616259991191	0.033333800034597516
3	27.63369689998217	stim	8		2	unambiguous	right	preferred	67.0		33.30949639994651	0.033200399950146675
3	27.666897299932316	stim	9		2	unambiguous	right	preferred	67.0		33.34269679989666	0.03323669999372214
3	27.700133999926038	stim	10		2	unambiguous	right	preferred	67.0		33.37593349989038	0.033387500094249845
3	27.733521500020288	stim	11		2	unambiguous	right	preferred	67.0		33.40932099998463	0.03317409998271614
3	27.766695600003004	stim	12		2	unambiguous	right	preferred	67.0		33.442495099967346	0.03372700000181794
3	27.800422600004822	stim	13		2	unambiguous	right	preferred	67.0		33.47622209996916	0.03300870000384748
3	27.83343130000867	stim	14		2	unambiguous	right	preferred	67.0		33.50923079997301	0.033289699931629
3	27.8667209999403	stim	15		2	unambiguous	right	preferred	67.0		33.54252049990464	0.033285100013017654
3	27.900006099953316	stim	16		2	unambiguous	right	preferred	67.0		33.57580559991766	0.03348270000424236
3	27.93348879995756	stim	17		2	unambiguous	right	preferred	67.0		33.6092882999219	0.03337339998688549
3	27.966862199944444	stim	18		2	unambiguous	right	preferred	67.0		33.642661699908786	0.03366189997177571
3	28.00052409991622	stim	19		2	unambiguous	right	preferred	67.0		33.67632359988056	0.033233100082725286
3	28.033757199998945	stim	20		2	unambiguous	right	preferred	67.0		33.70955669996329	0.032976899994537234
3	28.066734099993482	stim	21		2	unambiguous	right	preferred	67.0		33.742533599957824	0.03345909994095564
3	28.100193199934438	stim	22		2	unambiguous	right	preferred	67.0		33.77599269989878	0.034725000034086406
3	28.134918199968524	stim	23		2	unambiguous	right	preferred	67.0		33.810717699932866	0.03302810003515333
3	28.167946300003678	stim	24		2	unambiguous	right	preferred	67.0		33.84374579996802	0.049194399965927005
3	28.217140699969605	stim	25		2	unambiguous	right	preferred	67.0		33.892940199933946	0.033433099975809455
3	28.250573799945414	stim	26		2	unambiguous	right	preferred	67.0		33.926373299909756	0.03306919999886304
3	28.283642999944277	stim	27		2	unambiguous	right	preferred	67.0		33.95944249990862	0.03327230003196746
3	28.316915299976245	stim	28		2	unambiguous	right	preferred	67.0		33.992714799940586	0.0336638999870047
3	28.35057919996325	stim	29		2	unambiguous	right	preferred	67.0		34.02637869992759	0.0335041000507772
3	28.384083300014026	stim	30		2	unambiguous	right	preferred	67.0		34.05988279997837	0.03351809992454946
3	28.417601399938576	stim	31		2	unambiguous	right	preferred	67.0		34.09340089990292	0.033145900000818074
3	28.450747299939394	stim	32		2	unambiguous	right	preferred	67.0		34.126546799903736	0.033365300041623414
3	28.484112599981017	stim	33		2	unambiguous	right	preferred	67.0		34.15991209994536	0.03332009993027896
3	28.517432699911296	stim	34		2	unambiguous	right	preferred	67.0		34.19323219987564	0.03335360006894916
3	28.550786299980246	stim	35		2	unambiguous	right	preferred	67.0		34.22658579994459	0.03456920001190156
3	28.585355499992147	stim	36		2	unambiguous	right	preferred	67.0		34.26115499995649	0.03262539999559522
3	28.617980899987742	stim	37		2	unambiguous	right	preferred	67.0		34.293780399952084	0.033226799918338656
3	28.65120769990608	stim	38		2	unambiguous	right	preferred	67.0		34.32700719987042	0.03340400010347366
3	28.684611700009555	stim	39		2	unambiguous	right	preferred	67.0		34.360411199973896	0.03340680000837892
3	28.718018500017934	stim	40		2	unambiguous	right	preferred	67.0		34.393817999982275	0.033258199924603105
3	28.751276699942537	stim	41		2	unambiguous	right	preferred	67.0		34.42707619990688	0.0335384999634698
3	28.784815199906006	stim	42		2	unambiguous	right	preferred	67.0		34.46061469987035	0.03316760004963726
3	28.817982799955644	stim	43		2	unambiguous	right	preferred	67.0		34.493782299919985	0.033408200019039214
3	28.851390999974683	stim	44		2	unambiguous	right	preferred	67.0		34.527190499939024	0.033452400006353855
3	28.884843399981037	stim	45		2	unambiguous	right	preferred	67.0		34.56064289994538	0.03332980000413954
3	28.918173199985176	stim	46		2	unambiguous	right	preferred	67.0		34.59397269994952	0.03332919999957085
3	28.951502399984747	stim	47		2	unambiguous	right	preferred	67.0		34.62730189994909	0.0335504999384284
3	28.985052899923176	stim	48		2	unambiguous	right	preferred	67.0		34.66085239988752	0.033209300017915666
3	29.01826219994109	stim	49		2	unambiguous	right	preferred	67.0		34.69406169990543	0.03356580005493015
3	29.05182799999602	stim	50		2	unambiguous	right	preferred	67.0		34.72762749996036	0.033612399944104254
3	29.085440399940126	stim	51		2	unambiguous	right	preferred	67.0		34.76123989990447	0.03349780000280589
3	29.11893819994293	stim	52		2	unambiguous	right	preferred	67.0		34.79473769990727	0.03325029998086393
3	29.152188499923795	stim	53		2	unambiguous	right	preferred	67.0		34.82798799988814	0.03384190006181598
3	29.18603039998561	stim	54		2	unambiguous	right	preferred	67.0		34.86182989994995	0.032850699964910746
3	29.218881099950522	stim	55		2	unambiguous	right	preferred	67.0		34.894680599914864	0.0336708000395447
3	29.252551899990067	stim	56		2	unambiguous	right	preferred	67.0		34.92835139995441	0.03303359996061772
3	29.285585499950685	stim	57		2	unambiguous	right	preferred	67.0		34.961384999915026	0.03330160002224147
3	29.318887099972926	stim	58		2	unambiguous	right	preferred	67.0		34.99468659993727	0.03337509999983013
3	29.352262199972756	stim	59		2	unambiguous	right	preferred	67.0		35.0280616999371	0.03363119997084141
3	29.385893399943598	stim	60		2	unambiguous	right	preferred	67.0		35.06169289990794	0.03302370000164956
3	29.418917099945247	stim	61		2	unambiguous	right	preferred	67.0		35.09471659990959	0.033320500049740076
3	29.452237599994987	stim	62		2	unambiguous	right	preferred	67.0		35.12803709995933	0.033475899952463806
3	29.48571349994745	stim	63		2	unambiguous	right	preferred	67.0		35.16151299991179	0.033531100023537874
3	29.51924459997099	stim	64		2	unambiguous	right	preferred	67.0		35.19504409993533	0.03334980004001409
3	29.552594400011003	stim	65		2	unambiguous	right	preferred	67.0		35.228393899975345	0.03364849998615682
3	29.58624289999716	stim	66		2	unambiguous	right	preferred	67.0		35.2620423999615	0.03328799991868436
4	29.619530899915844	stim	0		2	unambiguous	left	preferred	67.0		35.295330399880186	0.03340990003198385
4	29.652940799947828	stim	1		2	unambiguous	left	preferred	67.0		35.32874029991217	0.03329890000168234
4	29.68623969994951	stim	2		2	unambiguous	left	preferred	67.0		35.36203919991385	0.03353140002582222
4	29.719771099975333	stim	3		2	unambiguous	left	preferred	67.0		35.395570599939674	0.03320669999811798
4	29.75297779997345	stim	4		2	unambiguous	left	preferred	67.0		35.42877729993779	0.033649599994532764
4	29.786627399967983	stim	5		2	unambiguous	left	preferred	67.0		35.462426899932325	0.03297790000215173
4	29.819605299970135	stim	6		2	unambiguous	left	preferred	67.0		35.49540479993448	0.033379900036379695
4	29.852985200006515	stim	7		2	unambiguous	left	preferred	67.0		35.528784699970856	0.03334460000041872
4	29.886329800006934	stim	8		2	unambiguous	left	preferred	67.0		35.562129299971275	0.03346169996075332
4	29.919791499967687	stim	9		2	unambiguous	left	preferred	67.0		35.59559099993203	0.03353629994671792
4	29.953327799914405	stim	10		2	unambiguous	left	preferred	67.0		35.629127299878746	0.03358640009537339
4	29.986914200009778	stim	11		2	unambiguous	left	preferred	67.0		35.66271369997412	0.03304869995918125
4	30.01996289996896	stim	12		2	unambiguous	left	preferred	67.0		35.6957623999333	0.0333791000302881
4	30.053341999999247	stim	13		2	unambiguous	left	preferred	67.0		35.72914149996359	0.03331590001471341
4	30.08665790001396	stim	14		2	unambiguous	left	preferred	67.0		35.7624573999783	0.033482200000435114
4	30.120140100014396	stim	15		2	unambiguous	left	preferred	67.0		35.79593959997874	0.03351340000517666
4	30.153653500019573	stim	16		2	unambiguous	left	preferred	67.0		35.829452999983914	0.0331772998906672
4	30.18683079991024	stim	17		2	unambiguous	left	preferred	67.0		35.86263029987458	0.03332320007029921
4	30.22015399998054	stim	18		2	unambiguous	left	preferred	67.0		35.89595349994488	0.0335588000016287
4	30.253712799982168	stim	19		2	unambiguous	left	preferred	67.0		35.92951229994651	0.03334339999128133
4	30.28705619997345	stim	20		2	unambiguous	left	preferred	67.0		35.96285569993779	0.03331850003451109
4	30.32037470000796	stim	21		2	unambiguous	left	preferred	67.0		35.9961741999723	0.03381639998406172
4	30.354191099992022	stim	22		2	unambiguous	left	preferred	67.0		36.02999059995636	0.03330669994466007
4	30.387497799936682	stim	23		2	unambiguous	left	preferred	67.0		36.06329729990102	0.033100000000558794
4	30.42059779993724	stim	24		2	unambiguous	left	preferred	67.0		36.09639729990158	0.03346960002090782
4	30.45406739995815	stim	25		2	unambiguous	left	preferred	67.0		36.12986689992249	0.03333789994940162
4	30.48740529990755	stim	26		2	unambiguous	left	preferred	67.0		36.16320479987189	0.03348830004688352
4	30.520893599954434	stim	27		2	unambiguous	left	preferred	67.0		36.196693099918775	0.0501763999927789
4	30.571069999947213	stim	28		2	unambiguous	left	preferred	67.0		36.246869499911554	0.04962770000565797
4	30.62069769995287	stim	29		2	unambiguous	left	preferred	67.0		36.29649719991721	0.033745600027032197
4	30.654443299979903	stim	30		2	unambiguous	left	preferred	67.0		36.330242799944244	0.03307649993803352
4	30.687519799917936	stim	31		2	unambiguous	left	preferred	67.0		36.36331929988228	0.03300749999471009
4	30.720527299912646	stim	32		2	unambiguous	left	preferred	67.0		36.39632679987699	0.03366850002203137
4	30.754195799934678	stim	33		2	unambiguous	left	preferred	67.0		36.42999529989902	0.03360079997219145
4	30.78779659990687	stim	34		2	unambiguous	left	preferred	67.0		36.46359609987121	0.03342100000008941
4	30.82121759990696	stim	35		2	unambiguous	left	preferred	67.0		36.4970170998713	0.03334090008866042
4	30.85455849999562	stim	36		2	unambiguous	left	preferred	67.0		36.53035799995996	0.03324839996639639
4	30.887806899962015	stim	37		2	unambiguous	left	preferred	67.0		36.56360639992636	0.03346389997750521
4	30.92127079993952	stim	38		2	unambiguous	left	preferred	67.0		36.59707029990386	0.033399000065401196
4	30.954669800004922	stim	39		2	unambiguous	left	preferred	67.0		36.63046929996926	0.03355689998716116
4	30.988226699992083	stim	40		2	unambiguous	left	preferred	67.0		36.664026199956425	0.033287799917161465
4	31.021514499909244	stim	41		2	unambiguous	left	preferred	67.0		36.697313999873586	0.033387500094249845
4	31.054902000003494	stim	42		2	unambiguous	left	preferred	67.0		36.730701499967836	0.03317499998956919
4	31.088076999993064	stim	43		2	unambiguous	left	preferred	67.0		36.763876499957405	0.033533699926920235
4	31.121610699919984	stim	44		2	unambiguous	left	preferred	67.0		36.797410199884325	0.03326050005853176
4	31.154871199978516	stim	45		2	unambiguous	left	preferred	67.0		36.83067069994286	0.03339849994517863
4	31.188269699923694	stim	46		2	unambiguous	left	preferred	67.0		36.864069199888036	0.03377460001502186
4	31.222044299938716	stim	47		2	unambiguous	left	preferred	67.0		36.89784379990306	0.033171200077049434
4	31.255215500015765	stim	48		2	unambiguous	left	preferred	67.0		36.93101499998011	0.032998799928463995
4	31.28821429994423	stim	49		2	unambiguous	left	preferred	67.0		36.96401379990857	0.03330850007478148
4	31.32152280001901	stim	50		2	unambiguous	left	preferred	67.0		36.99732229998335	0.033872899948619306
4	31.35539569996763	stim	51		2	unambiguous	left	preferred	67.0		37.03119519993197	0.03313060000073165
4	31.388526299968362	stim	52		2	unambiguous	left	preferred	67.0		37.0643257999327	0.03346519998740405
4	31.421991499955766	stim	53		2	unambiguous	left	preferred	67.0		37.09779099992011	0.03328710002824664
4	31.455278599984013	stim	54		2	unambiguous	left	preferred	67.0		37.131078099948354	0.033569399965927005
4	31.48884799994994	stim	55		2	unambiguous	left	preferred	67.0		37.16464749991428	0.033330800011754036
4	31.522178799961694	stim	56		2	unambiguous	left	preferred	67.0		37.197978299926035	0.03332010004669428
4	31.555498900008388	stim	57		2	unambiguous	left	preferred	67.0		37.23129839997273	0.033541299984790385
4	31.58904019999318	stim	58		2	unambiguous	left	preferred	67.0		37.26483969995752	0.033551499946042895
4	31.62259169993922	stim	59		2	unambiguous	left	preferred	67.0		37.29839119990356	0.03320180007722229
4	31.655793500016443	stim	60		2	unambiguous	left	preferred	67.0		37.331592999980785	0.033574999892152846
4	31.689368499908596	stim	61		2	unambiguous	left	preferred	67.0		37.36516799987294	0.03360310010612011
4	31.722971600014716	stim	62		2	unambiguous	left	preferred	67.0		37.39877109997906	0.03391849994659424
4	31.75689009996131	stim	63		2	unambiguous	left	preferred	67.0		37.43268959992565	0.033129399991594255
4	31.790019499952905	stim	64		2	unambiguous	left	preferred	67.0		37.465818999917246	0.03320439998060465
4	31.82322389993351	stim	65		2	unambiguous	left	preferred	67.0		37.49902339989785	0.033215500065125525
4	31.856439399998635	stim	66		2	unambiguous	left	preferred	67.0		37.53223889996298	0.033456799923442304
5	31.889896199922077	stim	0		2	unambiguous	right	preferred	67.0		37.56569569988642	0.03350970009341836
5	31.923405900015496	stim	1		2	unambiguous	right	preferred	67.0		37.59920539997984	0.03338389995042235
5	31.956789799965918	stim	2		2	unambiguous	right	preferred	67.0		37.63258929993026	0.03343850001692772
5	31.990228299982846	stim	3		2	unambiguous	right	preferred	67.0		37.66602779994719	0.050127799971960485
5	32.040356099954806	stim	4		2	unambiguous	right	preferred	67.0		37.71615559991915	0.033552899956703186
5	32.07390899991151	stim	5		2	unambiguous	right	preferred	67.0		37.74970849987585	0.03372619999572635
5	32.107635199907236	stim	6		2	unambiguous	right	preferred	67.0		37.78343469987158	0.03315370006021112
5	32.14078889996745	stim	7		2	unambiguous	right	preferred	67.0		37.81658839993179	0.03301869996357709
5	32.173807599931024	stim	8		2	unambiguous	right	preferred	67.0		37.849607099895366	0.03363530000206083
5	32.207442899933085	stim	9		2	unambiguous	right	preferred	67.0		37.883242399897426	0.03362970007583499
5	32.24107260000892	stim	10		2	unambiguous	right	preferred	67.0		37.91687209997326	0.03366019995883107
5	32.27473279996775	stim	11		2	unambiguous	right	preferred	67.0		37.95053229993209	0.03338969999458641
5	32.30812249996234	stim	12		2	unambiguous	right	preferred	67.0		37.98392199992668	0.033260100055485964
5	32.34138260001782	stim	13		2	unambiguous	right	preferred	67.0		38.017182099982165	0.03345939994323999
5	32.37484199996106	stim	14		2	unambiguous	right	preferred	67.0		38.050641499925405	0.03342350001912564
5	32.40826549998019	stim	15		2	unambiguous	right	preferred	67.0		38.08406499994453	0.03348979994188994
5	32.44175529992208	stim	16		2	unambiguous	right	preferred	67.0		38.11755479988642	0.03334120009094477
5	32.475096500013024	stim	17		2	unambiguous	right	preferred	67.0		38.150895999977365	0.03351199999451637
5	32.50860850000754	stim	18		2	unambiguous	right	preferred	67.0		38.18440799997188	0.03326239995658398
5	32.541870899964124	stim	19		2	unambiguous	right	preferred	67.0		38.217670399928465	0.03358689998276532
5	32.57545779994689	stim	20		2	unambiguous	right	preferred	67.0		38.25125729991123	0.03357029997278005
5	32.60902809991967	stim	21		2	unambiguous	right	preferred	67.0		38.28482759988401	0.033342899987474084
5	32.64237099990714	stim	22		2	unambiguous	right	preferred	67.0		38.318170499871485	0.03326830000150949
5	32.67563929990865	stim	23		2	unambiguous	right	preferred	67.0		38.351438799872994	0.03372560010757297
5	32.709364900016226	stim	24		2	unambiguous	right	preferred	67.0		38.38516439998057	0.0333526999456808
5	32.74271759996191	stim	25		2	unambiguous	right	preferred	67.0		38.41851709992625	0.03372459998354316
5	32.77644219994545	stim	26		2	unambiguous	right	preferred	67.0		38.45224169990979	0.03319870005361736
5	32.80964089999907	stim	27		2	unambiguous	right	preferred	67.0		38.48544039996341	0.03355980000924319
5	32.84320070000831	stim	28		2	unambiguous	right	preferred	67.0		38.51900019997265	0.03355699998792261
5	32.87675769999623	stim	29		2	unambiguous	right	preferred	67.0		38.552557199960575	0.03326209995429963
5	32.91001979995053	stim	30		2	unambiguous	right	preferred	67.0		38.585819299914874	0.049923600046895444
5	32.95994339999743	stim	31		2	unambiguous	right	preferred	67.0		38.63574289996177	0.03351119998842478
5	32.99345459998585	stim	32		2	unambiguous	right	preferred	67.0		38.669254099950194	0.04998649994377047
5	33.04344109992962	stim	33		2	unambiguous	right	preferred	67.0		38.719240599893965	0.03341879998333752
5	33.07685989991296	stim	34		2	unambiguous	right	preferred	67.0		38.7526593998773	0.03333450003992766
5	33.11019439995289	stim	35		2	unambiguous	right	preferred	67.0		38.78599389991723	0.03302760003134608
5	33.143221999984235	stim	36		2	unambiguous	right	preferred	67.0		38.819021499948576	0.03329319995827973
5	33.176515199942514	stim	37		2	unambiguous	right	preferred	67.0		38.852314699906856	0.03381779999472201
5	33.210332999937236	stim	38		2	unambiguous	right	preferred	67.0		38.88613249990158	0.033320600050501525
5	33.24365359998774	stim	39		2	unambiguous	right	preferred	67.0		38.91945309995208	0.03356809995602816
5	33.277221699943766	stim	40		2	unambiguous	right	preferred	67.0		38.95302119990811	0.03327350004110485
5	33.31049519998487	stim	41		2	unambiguous	right	preferred	67.0		38.98629469994921	0.03336100000888109
5	33.34385619999375	stim	42		2	unambiguous	right	preferred	67.0		39.01965569995809	0.0334527000086382
5	33.37730890000239	stim	43		2	unambiguous	right	preferred	67.0		39.05310839996673	0.03356459992937744
5	33.41087349993177	stim	44		2	unambiguous	right	preferred	67.0		39.08667299989611	0.0333482000278309
5	33.4442216999596	stim	45		2	unambiguous	right	preferred	67.0		39.12002119992394	0.03343099995981902
5	33.47765269991942	stim	46		2	unambiguous	right	preferred	67.0		39.15345219988376	0.03327240003272891
5	33.510925099952146	stim	47		2	unambiguous	right	preferred	67.0		39.18672459991649	0.033857200061902404
5	33.54478230001405	stim	48		2	unambiguous	right	preferred	67.0		39.22058179997839	0.03365070000290871
5	33.57843300001696	stim	49		2	unambiguous	right	preferred	67.0		39.2542324999813	0.034100999939255416
5	33.61253399995621	stim	50		2	unambiguous	right	preferred	67.0		39.288333499920554	0.0330128000350669
5	33.64554679999128	stim	51		2	unambiguous	right	preferred	67.0		39.32134629995562	0.03326759999617934
5	33.67881439998746	stim	52		2	unambiguous	right	preferred	67.0		39.3546138999518	0.03341789997648448
5	33.712232299963944	stim	53		2	unambiguous	right	preferred	67.0		39.388031799928285	0.03321320004761219
5	33.745445500011556	stim	54		2	unambiguous	right	preferred	67.0		39.4212449999759	0.033385799964889884
5	33.778831299976446	stim	55		2	unambiguous	right	preferred	67.0		39.45463079994079	0.03410970000550151
5	33.81294099998195	stim	56		2	unambiguous	right	preferred	67.0		39.48874049994629	0.03304180002305657
5	33.845982800005004	stim	57		2	unambiguous	right	preferred	67.0		39.521782299969345	0.03334079997148365
5	33.87932359997649	stim	58		2	unambiguous	right	preferred	67.0		39.55512309994083	0.03334530000574887
5	33.912668899982236	stim	59		2	unambiguous	right	preferred	67.0		39.58846839994658	0.03336539992596954
5	33.946034299908206	stim	60		2	unambiguous	right	preferred	67.0		39.62183379987255	0.03350540006067604
5	33.97953969996888	stim	61		2	unambiguous	right	preferred	67.0		39.65533919993322	0.03316750004887581
5	34.01270720001776	stim	62		2	unambiguous	right	preferred	67.0		39.6885066999821	0.033305699937045574
5	34.0460128999548	stim	63		2	unambiguous	right	preferred	67.0		39.721812399919145	0.03361190005671233
5	34.079624800011516	stim	64		2	unambiguous	right	preferred	67.0		39.75542429997586	0.03349889989476651
5	34.11312369990628	stim	65		2	unambiguous	right	preferred	67.0		39.788923199870624	0.033488200046122074
5	34.146611899952404	stim	66		2	unambiguous	right	preferred	67.0		39.822411399916746	0.033819800009950995
6	34.180431699962355	stim	0		2	unambiguous	left	preferred	70.0		39.8562311999267	0.033062499947845936
6	34.2134941999102	stim	1		2	unambiguous	left	preferred	70.0		39.88929369987454	0.03353970008902252
6	34.247033899999224	stim	2		2	unambiguous	left	preferred	70.0		39.922833399963565	0.033267099992372096
6	34.280300999991596	stim	3		2	unambiguous	left	preferred	70.0		39.95610049995594	0.033330900012515485
6	34.31363190000411	stim	4		2	unambiguous	left	preferred	70.0		39.98943139996845	0.03348330000881106
6	34.34711520001292	stim	5		2	unambiguous	left	preferred	70.0		40.022914699977264	0.033320299931801856
6	34.380435499944724	stim	6		2	unambiguous	left	preferred	70.0		40.056234999909066	0.03324030002113432
6	34.41367579996586	stim	7		2	unambiguous	left	preferred	70.0		40.0894752999302	0.03332539997063577
6	34.447001199936494	stim	8		2	unambiguous	left	preferred	70.0		40.122800699900836	0.03356730006635189
6	34.480568500002846	stim	9		2	unambiguous	left	preferred	70.0		40.15636799996719	0.03332970000337809
6	34.513898200006224	stim	10		2	unambiguous	left	preferred	70.0		40.189697699970566	0.0334693999029696
6	34.547367599909194	stim	11		2	unambiguous	left	preferred	70.0		40.223167099873535	0.033225600025616586
6	34.58059319993481	stim	12		2	unambiguous	left	preferred	70.0		40.25639269989915	0.03334770002402365
6	34.613940899958834	stim	13		2	unambiguous	left	preferred	70.0		40.289740399923176	0.03337359998840839
6	34.64731449994724	stim	14		2	unambiguous	left	preferred	70.0		40.323113999911584	0.03335390007123351
6	34.680668400018476	stim	15		2	unambiguous	left	preferred	70.0		40.35646789998282	0.03355989989358932
6	34.714228299912065	stim	16		2	unambiguous	left	preferred	70.0		40.39002779987641	0.033145800000056624
6	34.74737409991212	stim	17		2	unambiguous	left	preferred	70.0		40.42317359987646	0.03371710004284978
6	34.78109119995497	stim	18		2	unambiguous	left	preferred	70.0		40.45689069991931	0.033147300011478364
6	34.81423849996645	stim	19		2	unambiguous	left	preferred	70.0		40.49003799993079	0.033185499953106046
6	34.847423999919556	stim	20		2	unambiguous	left	preferred	70.0		40.5232234998839	0.03332430007867515
6	34.88074829999823	stim	21		2	unambiguous	left	preferred	70.0		40.55654779996257	0.03348579991143197
6	34.91423409990966	stim	22		2	unambiguous	left	preferred	70.0		40.590033599874005	0.03356240002904087
6	34.947796499938704	stim	23		2	unambiguous	left	preferred	70.0		40.623595999903046	0.0333171000238508
6	34.981113599962555	stim	24		2	unambiguous	left	preferred	70.0		40.656913099926896	0.03307510004378855
6	35.01418870000634	stim	25		2	unambiguous	left	preferred	70.0		40.689988199970685	0.033326499979011714
6	35.047515199985355	stim	26		2	unambiguous	left	preferred	70.0		40.7233146999497	0.03334359999280423
6	35.08085879997816	stim	27		2	unambiguous	left	preferred	70.0		40.7566582999425	0.03341549995820969
6	35.11427429993637	stim	28		2	unambiguous	left	preferred	70.0		40.79007379990071	0.033594900043681264
6	35.14786919998005	stim	29		2	unambiguous	left	preferred	70.0		40.82366869994439	0.03325999993830919
6	35.18112919991836	stim	30		2	unambiguous	left	preferred	70.0		40.8569286998827	0.033548800041899085
6	35.21467799996026	stim	31		2	unambiguous	left	preferred	70.0		40.8904774999246	0.035384400049224496
6	35.25006240000948	stim	32		2	unambiguous	left	preferred	70.0		40.925861899973825	0.03360309998970479
6	35.28366549999919	stim	33		2	unambiguous	left	preferred	70.0		40.95946499996353	0.03371139999944717
6	35.317376899998635	stim	34		2	unambiguous	left	preferred	70.0		40.99317639996298	0.04944659990724176
6	35.36682349990588	stim	35		2	unambiguous	left	preferred	70.0		41.04262299987022	0.03302640002220869
6	35.399849899928086	stim	36		2	unambiguous	left	preferred	70.0		41.07564939989243	0.0335773000260815
6	35.43342719995417	stim	37		2	unambiguous	left	preferred	70.0		41.10922669991851	0.03333310002926737
6	35.466760299983434	stim	38		2	unambiguous	left	preferred	70.0		41.142559799947776	0.03344439994543791
6	35.50020469992887	stim	39		2	unambiguous	left	preferred	70.0		41.176004199893214	0.033599400077946484
6	35.53380410000682	stim	40		2	unambiguous	left	preferred	70.0		41.20960359997116	0.03315559995826334
6	35.56695969996508	stim	41		2	unambiguous	left	preferred	70.0		41.242759199929424	0.03313330002129078
6	35.60009299998637	stim	42		2	unambiguous	left	preferred	70.0		41.275892499950714	0.033367799944244325
6	35.63346079993062	stim	43		2	unambiguous	left	preferred	70.0		41.30926029989496	0.033225600025616586
6	35.666686399956234	stim	44		2	unambiguous	left	preferred	70.0		41.342485899920575	0.03352419997099787
6	35.70021059992723	stim	45		2	unambiguous	left	preferred	70.0		41.37601009989157	0.03321880009025335
6	35.733429400017485	stim	46		2	unambiguous	left	preferred	70.0		41.40922889998183	0.033258199924603105
6	35.76668759994209	stim	47		2	unambiguous	left	preferred	70.0		41.44248709990643	0.03332669998053461
6	35.80001429992262	stim	48		2	unambiguous	left	preferred	70.0		41.475813799886964	0.03318830009084195
6	35.833202600013465	stim	49		2	unambiguous	left	preferred	70.0		41.509002099977806	0.033425599918700755
6	35.866628199932165	stim	50		2	unambiguous	left	preferred	70.0		41.54242769989651	0.03346850001253188
6	35.9000966999447	stim	51		2	unambiguous	left	preferred	70.0		41.57589619990904	0.03319350001402199
6	35.93329019995872	stim	52		2	unambiguous	left	preferred	70.0		41.60908969992306	0.03344759996980429
6	35.966737799928524	stim	53		2	unambiguous	left	preferred	70.0		41.642537299892865	0.0332425000378862
6	35.99998029996641	stim	54		2	unambiguous	left	preferred	70.0		41.67577979993075	0.03323389997240156
6	36.03321419993881	stim	55		2	unambiguous	left	preferred	70.0		41.70901369990315	0.0334030999802053
6	36.06661729991902	stim	56		2	unambiguous	left	preferred	70.0		41.74241679988336	0.03342800005339086
6	36.10004529997241	stim	57		2	unambiguous	left	preferred	70.0		41.77584479993675	0.03334249998442829
6	36.133387799956836	stim	58		2	unambiguous	left	preferred	70.0		41.80918729992118	0.03340870002284646
6	36.16679649997968	stim	59		2	unambiguous	left	preferred	70.0		41.842595999944024	0.03317459998652339
6	36.199971099966206	stim	60		2	unambiguous	left	preferred	70.0		41.87577059993055	0.03344459994696081
6	36.23341569991317	stim	61		2	unambiguous	left	preferred	70.0		41.90921519987751	0.033215400064364076
6	36.26663109997753	stim	62		2	unambiguous	left	preferred	70.0		41.94243059994187	0.03344689996447414
6	36.300077999942005	stim	63		2	unambiguous	left	preferred	70.0		41.975877499906346	0.03319570003077388
6	36.33327369997278	stim	64		2	unambiguous	left	preferred	70.0		42.00907319993712	0.03329559997655451
6	36.36656929994933	stim	65		2	unambiguous	left	preferred	70.0		42.042368799913675	0.033788700005970895
