trial_nr	onset	event_type	phase	response	nr_frames	block_type	trial_type	block_ID	response_hand	phase_length	last_frame	key_duration	onset_abs	duration
0	0.01912469998933375	stim	0		0	ambiguous_practice	ambiguous_practice	0.0	preferred_right	300.0	0.0		3.9841242999536917	2.3882601999794133
0	2.407384899968747	ambiguous_practice	0	space	1	ambiguous_practice	ambiguous_practice	0.0	preferred_right	300.0	0.0	0.10031470004469156	6.372384499933105	-2.321433699980844
0	0.08595119998790324	stim	1		2	ambiguous_practice	ambiguous_practice	0.0	preferred_right	300.0	0.0		4.050950799952261	0.03344680002192035
0	0.11939800000982359	stim	2		0	ambiguous_practice	ambiguous_practice	0.0	preferred_right	300.0	0.0		4.0843975999741815	2.7378358999849297
0	2.8572338999947533	ambiguous_practice	2	space	2	ambiguous_practice	ambiguous_practice	0.0	preferred_right	300.0	0.0	0.11629049998009577	6.822233499959111	-2.686665899993386
0	0.17056800000136718	stim	3		2	ambiguous_practice	ambiguous_practice	0.0	preferred_right	300.0	0.0		4.135567599965725	0.03213279996998608
0	0.20270079997135326	stim	4		2	ambiguous_practice	ambiguous_practice	0.0	preferred_right	300.0	0.0		4.167700399935711	0.033767900022212416
0	0.23646869999356568	stim	5		2	ambiguous_practice	ambiguous_practice	0.0	preferred_right	300.0	0.0		4.201468299957924	0.03301040001679212
0	0.2694791000103578	stim	6		2	ambiguous_practice	ambiguous_practice	0.0	preferred_right	300.0	0.0		4.234478699974716	0.03301049995934591
0	0.3024895999697037	stim	7		2	ambiguous_practice	ambiguous_practice	0.0	preferred_right	300.0	0.0		4.267489199934062	0.03395830001682043
0	0.33644789998652413	stim	8		2	ambiguous_practice	ambiguous_practice	0.0	preferred_right	300.0	0.0		4.301447499950882	0.0336574999964796
0	0.37010539998300374	stim	9		2	ambiguous_practice	ambiguous_practice	0.0	preferred_right	300.0	0.0		4.335104999947362	0.03334690001793206
0	0.4034523000009358	stim	10		2	ambiguous_practice	ambiguous_practice	0.0	preferred_right	300.0	0.0		4.368451899965294	0.03321329999016598
0	0.43666559999110177	stim	11		2	ambiguous_practice	ambiguous_practice	0.0	preferred_right	300.0	0.0		4.40166519995546	0.03329280001344159
0	0.46995840000454336	stim	12		2	ambiguous_practice	ambiguous_practice	0.0	preferred_right	300.0	0.0		4.434957999968901	0.03378759999759495
0	0.5037460000021383	stim	13		2	ambiguous_practice	ambiguous_practice	0.0	preferred_right	300.0	0.0		4.468745599966496	0.03336379997199401
0	0.5371097999741323	stim	14		2	ambiguous_practice	ambiguous_practice	0.0	preferred_right	300.0	0.0		4.50210939993849	0.033470200025476515
0	0.5705799999996088	stim	15		2	ambiguous_practice	ambiguous_practice	0.0	preferred_right	300.0	0.0		4.535579599963967	0.03378659998998046
0	0.6043665999895893	stim	16		2	ambiguous_practice	ambiguous_practice	0.0	preferred_right	300.0	0.0		4.569366199953947	0.033088000025600195
0	0.6374546000151895	stim	17		2	ambiguous_practice	ambiguous_practice	0.0	preferred_right	300.0	0.0		4.602454199979547	0.033474700001534075
0	0.6709293000167236	stim	18		2	ambiguous_practice	ambiguous_practice	0.0	preferred_right	300.0	0.0		4.6359288999810815	0.0335332999820821
0	0.7044625999988057	stim	19		2	ambiguous_practice	ambiguous_practice	0.0	preferred_right	300.0	0.0		4.669462199963164	0.033390500000678
0	0.7378530999994837	stim	20		2	ambiguous_practice	ambiguous_practice	0.0	preferred_right	300.0	0.0		4.702852699963842	0.033523399964906275
0	0.77137649996439	stim	21		2	ambiguous_practice	ambiguous_practice	0.0	preferred_right	300.0	0.0		4.736376099928748	0.03363580000586808
0	0.805012299970258	stim	22		2	ambiguous_practice	ambiguous_practice	0.0	preferred_right	300.0	0.0		4.770011899934616	0.03295810002600774
0	0.8379703999962658	stim	23		2	ambiguous_practice	ambiguous_practice	0.0	preferred_right	300.0	0.0		4.802969999960624	0.03376419999403879
0	0.8717345999903046	stim	24		2	ambiguous_practice	ambiguous_practice	0.0	preferred_right	300.0	0.0		4.8367341999546625	0.033869999984744936
0	0.9056045999750495	stim	25		2	ambiguous_practice	ambiguous_practice	0.0	preferred_right	300.0	0.0		4.870604199939407	0.033560500014573336
0	0.9391650999896228	stim	26		2	ambiguous_practice	ambiguous_practice	0.0	preferred_right	300.0	0.0		4.904164699953981	0.03300170000875369
0	0.9721667999983765	stim	27		2	ambiguous_practice	ambiguous_practice	0.0	preferred_right	300.0	0.0		4.937166399962734	0.03387849999126047
0	1.006045299989637	stim	28		2	ambiguous_practice	ambiguous_practice	0.0	preferred_right	300.0	0.0		4.971044899953995	0.033388699986971915
0	1.039433999976609	stim	29		2	ambiguous_practice	ambiguous_practice	0.0	preferred_right	300.0	0.0		5.004433599940967	0.03314539999701083
0	1.0725793999736197	stim	30		2	ambiguous_practice	ambiguous_practice	0.0	preferred_right	300.0	0.0		5.037578999937978	0.03312140004709363
0	1.1057008000207134	stim	31		2	ambiguous_practice	ambiguous_practice	0.0	preferred_right	300.0	0.0		5.070700399985071	0.033510199980810285
0	1.1392110000015236	stim	32		2	ambiguous_practice	ambiguous_practice	0.0	preferred_right	300.0	0.0		5.104210599965882	0.03368079999927431
0	1.172891800000798	stim	33		2	ambiguous_practice	ambiguous_practice	0.0	preferred_right	300.0	0.0		5.137891399965156	0.033628900011535734
0	1.2065207000123337	stim	34		2	ambiguous_practice	ambiguous_practice	0.0	preferred_right	300.0	0.0		5.171520299976692	0.03342900000279769
0	1.2399497000151314	stim	35		2	ambiguous_practice	ambiguous_practice	0.0	preferred_right	300.0	0.0		5.204949299979489	0.03308019996620715
0	1.2730298999813385	stim	36		2	ambiguous_practice	ambiguous_practice	0.0	preferred_right	300.0	0.0		5.238029499945696	0.03348550002556294
0	1.3065154000069015	stim	37		2	ambiguous_practice	ambiguous_practice	0.0	preferred_right	300.0	0.0		5.271514999971259	0.03312579996418208
0	1.3396411999710836	stim	38		2	ambiguous_practice	ambiguous_practice	0.0	preferred_right	300.0	0.0		5.3046407999354415	0.03370390000054613
0	1.3733450999716297	stim	39		2	ambiguous_practice	ambiguous_practice	0.0	preferred_right	300.0	0.0		5.338344699935988	0.03362540004309267
0	1.4069705000147223	stim	40		2	ambiguous_practice	ambiguous_practice	0.0	preferred_right	300.0	0.0		5.37197009997908	0.03352679999079555
0	1.440497300005518	stim	41		2	ambiguous_practice	ambiguous_practice	0.0	preferred_right	300.0	0.0		5.405496899969876	0.03331550001166761
0	1.4738128000171855	stim	42		2	ambiguous_practice	ambiguous_practice	0.0	preferred_right	300.0	0.0		5.438812399981543	0.03331569995498285
0	1.5071284999721684	stim	43		2	ambiguous_practice	ambiguous_practice	0.0	preferred_right	300.0	0.0		5.472128099936526	0.033708800037857145
0	1.5408373000100255	stim	44		2	ambiguous_practice	ambiguous_practice	0.0	preferred_right	300.0	0.0		5.505836899974383	0.03344099997775629
0	1.5742782999877818	stim	45		2	ambiguous_practice	ambiguous_practice	0.0	preferred_right	300.0	0.0		5.53927789995214	0.03328979999059811
0	1.60756809997838	stim	46		2	ambiguous_practice	ambiguous_practice	0.0	preferred_right	300.0	0.0		5.572567699942738	0.033972600009292364
0	1.6415406999876723	stim	47		2	ambiguous_practice	ambiguous_practice	0.0	preferred_right	300.0	0.0		5.60654029995203	0.033305799996014684
0	1.674846499983687	stim	48		2	ambiguous_practice	ambiguous_practice	0.0	preferred_right	300.0	0.0		5.639846099948045	0.033632899983786047
0	1.708479399967473	stim	49		2	ambiguous_practice	ambiguous_practice	0.0	preferred_right	300.0	0.0		5.673478999931831	0.03390820004278794
0	1.742387600010261	stim	50		2	ambiguous_practice	ambiguous_practice	0.0	preferred_right	300.0	0.0		5.707387199974619	0.033465799991972744
0	1.7758534000022337	stim	51		2	ambiguous_practice	ambiguous_practice	0.0	preferred_right	300.0	0.0		5.740852999966592	0.03349499998148531
0	1.809348399983719	stim	52		2	ambiguous_practice	ambiguous_practice	0.0	preferred_right	300.0	0.0		5.774347999948077	0.033320299990009516
0	1.8426686999737285	stim	53		2	ambiguous_practice	ambiguous_practice	0.0	preferred_right	300.0	0.0		5.807668299938086	0.03340840002056211
0	1.8760770999942906	stim	54		2	ambiguous_practice	ambiguous_practice	0.0	preferred_right	300.0	0.0		5.8410766999586485	0.03360680001787841
0	1.909683900012169	stim	55		2	ambiguous_practice	ambiguous_practice	0.0	preferred_right	300.0	0.0		5.874683499976527	0.033199199999216944
0	1.942883100011386	stim	56		2	ambiguous_practice	ambiguous_practice	0.0	preferred_right	300.0	0.0		5.907882699975744	0.033745799970347434
0	1.9766288999817334	stim	57		2	ambiguous_practice	ambiguous_practice	0.0	preferred_right	300.0	0.0		5.941628499946091	0.033271700027398765
0	2.009900600009132	stim	58		2	ambiguous_practice	ambiguous_practice	0.0	preferred_right	300.0	0.0		5.97490019997349	0.03346229996532202
0	2.043362899974454	stim	59		2	ambiguous_practice	ambiguous_practice	0.0	preferred_right	300.0	0.0		6.008362499938812	0.03352759999688715
0	2.0768904999713413	stim	60		2	ambiguous_practice	ambiguous_practice	0.0	preferred_right	300.0	0.0		6.041890099935699	0.05020870000589639
0	2.1270991999772377	stim	61		2	ambiguous_practice	ambiguous_practice	0.0	preferred_right	300.0	0.0		6.092098799941596	0.03350319998571649
0	2.1606023999629542	stim	62		2	ambiguous_practice	ambiguous_practice	0.0	preferred_right	300.0	0.0		6.125601999927312	0.03315380000276491
0	2.193756199965719	stim	63		2	ambiguous_practice	ambiguous_practice	0.0	preferred_right	300.0	0.0		6.158755799930077	0.03339820000110194
0	2.227154399966821	stim	64		2	ambiguous_practice	ambiguous_practice	0.0	preferred_right	300.0	0.0		6.192153999931179	0.0338381000328809
0	2.260992499999702	stim	65		2	ambiguous_practice	ambiguous_practice	0.0	preferred_right	300.0	0.0		6.22599209996406	0.049689400009810925
0	2.310681900009513	stim	66		2	ambiguous_practice	ambiguous_practice	0.0	preferred_right	300.0	0.0		6.275681499973871	0.033667100011371076
0	2.344349000020884	stim	67		2	ambiguous_practice	ambiguous_practice	0.0	preferred_right	300.0	0.0		6.309348599985242	0.033831499982625246
0	2.3781805000035092	stim	68		2	ambiguous_practice	ambiguous_practice	0.0	preferred_right	300.0	0.0		6.343180099967867	0.03352900000754744
0	2.4117095000110567	stim	69		2	ambiguous_practice	ambiguous_practice	0.0	preferred_right	300.0	0.0		6.376709099975415	0.03342910000355914
0	2.445138600014616	stim	70		2	ambiguous_practice	ambiguous_practice	0.0	preferred_right	300.0	0.0		6.410138199978974	0.03326489997562021
0	2.478403499990236	stim	71		2	ambiguous_practice	ambiguous_practice	0.0	preferred_right	300.0	0.0		6.443403099954594	0.03351949999341741
0	2.5119229999836534	stim	72		2	ambiguous_practice	ambiguous_practice	0.0	preferred_right	300.0	0.0		6.476922599948011	0.03326190001098439
0	2.545184899994638	stim	73		2	ambiguous_practice	ambiguous_practice	0.0	preferred_right	300.0	0.0		6.510184499958996	0.033329400001093745
0	2.5785142999957316	stim	74		2	ambiguous_practice	ambiguous_practice	0.0	preferred_right	300.0	0.0		6.5435138999600895	0.03408269997453317
0	2.6125969999702647	stim	75		2	ambiguous_practice	ambiguous_practice	0.0	preferred_right	300.0	0.0		6.577596599934623	0.0332545000128448
0	2.6458514999831095	stim	76		2	ambiguous_practice	ambiguous_practice	0.0	preferred_right	300.0	0.0		6.6108510999474674	0.0334906000061892
0	2.6793420999892987	stim	77		2	ambiguous_practice	ambiguous_practice	0.0	preferred_right	300.0	0.0		6.644341699953657	0.033511499990709126
0	2.712853599980008	stim	78		2	ambiguous_practice	ambiguous_practice	0.0	preferred_right	300.0	0.0		6.677853199944366	0.03344000002834946
0	2.7462936000083573	stim	79		2	ambiguous_practice	ambiguous_practice	0.0	preferred_right	300.0	0.0		6.711293199972715	0.03311259998008609
0	2.7794061999884434	stim	80		2	ambiguous_practice	ambiguous_practice	0.0	preferred_right	300.0	0.0		6.744405799952801	0.033625799987930804
0	2.813031999976374	stim	81		2	ambiguous_practice	ambiguous_practice	0.0	preferred_right	300.0	0.0		6.778031599940732	0.03342960000736639
0	2.8464615999837406	stim	82		2	ambiguous_practice	ambiguous_practice	0.0	preferred_right	300.0	0.0		6.8114611999480985	0.03338829998392612
0	2.8798498999676667	stim	83		2	ambiguous_practice	ambiguous_practice	0.0	preferred_right	300.0	0.0		6.844849499932025	0.03340770001523197
0	2.9132575999828987	stim	84		2	ambiguous_practice	ambiguous_practice	0.0	preferred_right	300.0	0.0		6.878257199947257	0.033683400019071996
0	2.9469410000019707	stim	85		2	ambiguous_practice	ambiguous_practice	0.0	preferred_right	300.0	0.0		6.911940599966329	0.03333459998248145
0	2.980275599984452	stim	86		2	ambiguous_practice	ambiguous_practice	0.0	preferred_right	300.0	0.0		6.94527519994881	0.03338249999796972
0	3.013658099982422	stim	87		2	ambiguous_practice	ambiguous_practice	0.0	preferred_right	300.0	0.0		6.97865769994678	0.03343700000550598
0	3.047095099987928	stim	88		2	ambiguous_practice	ambiguous_practice	0.0	preferred_right	300.0	0.0		7.012094699952286	0.03340880002360791
0	3.0805039000115357	stim	89		2	ambiguous_practice	ambiguous_practice	0.0	preferred_right	300.0	0.0		7.045503499975894	0.03339959995355457
0	3.1139034999650903	stim	90		2	ambiguous_practice	ambiguous_practice	0.0	preferred_right	300.0	0.0		7.078903099929448	0.050000600051134825
0	3.163904100016225	stim	91		2	ambiguous_practice	ambiguous_practice	0.0	preferred_right	300.0	0.0		7.128903699980583	0.033354399958625436
0	3.1972584999748506	stim	92		2	ambiguous_practice	ambiguous_practice	0.0	preferred_right	300.0	0.0		7.1622580999392085	0.04993000003742054
0	3.247188500012271	stim	93		2	ambiguous_practice	ambiguous_practice	0.0	preferred_right	300.0	0.0		7.212188099976629	0.033855699992273
0	3.281044200004544	stim	94		2	ambiguous_practice	ambiguous_practice	0.0	preferred_right	300.0	0.0		7.246043799968902	0.033118999970611185
0	3.3141631999751553	stim	95		2	ambiguous_practice	ambiguous_practice	0.0	preferred_right	300.0	0.0		7.279162799939513	0.033320599992293864
0	3.347483799967449	stim	96		2	ambiguous_practice	ambiguous_practice	0.0	preferred_right	300.0	0.0		7.312483399931807	0.033566400001291186
0	3.3810501999687403	stim	97		2	ambiguous_practice	ambiguous_practice	0.0	preferred_right	300.0	0.0		7.346049799933098	0.033249600033741444
0	3.414299800002482	stim	98		2	ambiguous_practice	ambiguous_practice	0.0	preferred_right	300.0	0.0		7.37929939996684	0.03333279996877536
0	3.447632599971257	stim	99		2	ambiguous_practice	ambiguous_practice	0.0	preferred_right	300.0	0.0		7.412632199935615	0.03356400004122406
0	3.481196600012481	stim	100		2	ambiguous_practice	ambiguous_practice	0.0	preferred_right	300.0	0.0		7.446196199976839	0.03351859998656437
0	3.5147151999990456	stim	101		2	ambiguous_practice	ambiguous_practice	0.0	preferred_right	300.0	0.0		7.4797147999634035	0.03312679997179657
0	3.547841999970842	stim	102		2	ambiguous_practice	ambiguous_practice	0.0	preferred_right	300.0	0.0		7.5128415999352	0.03355950000695884
0	3.581401499977801	stim	103		2	ambiguous_practice	ambiguous_practice	0.0	preferred_right	300.0	0.0		7.546401099942159	0.033602100040297955
0	3.615003600018099	stim	104		2	ambiguous_practice	ambiguous_practice	0.0	preferred_right	300.0	0.0		7.580003199982457	0.03365189995383844
0	3.6486554999719374	stim	105		2	ambiguous_practice	ambiguous_practice	0.0	preferred_right	300.0	0.0		7.613655099936295	0.033908900048118085
0	3.6825644000200555	stim	106		2	ambiguous_practice	ambiguous_practice	0.0	preferred_right	300.0	0.0		7.647563999984413	0.03352169995196164
0	3.716086099972017	stim	107		2	ambiguous_practice	ambiguous_practice	0.0	preferred_right	300.0	0.0		7.681085699936375	0.03320140001596883
0	3.749287499987986	stim	108		2	ambiguous_practice	ambiguous_practice	0.0	preferred_right	300.0	0.0		7.714287099952344	0.0360161000280641
0	3.78530360001605	stim	109		2	ambiguous_practice	ambiguous_practice	0.0	preferred_right	300.0	0.0		7.750303199980408	0.031648000003769994
0	3.81695160001982	stim	110		2	ambiguous_practice	ambiguous_practice	0.0	preferred_right	300.0	0.0		7.781951199984178	0.050216699950397015
0	3.867168299970217	stim	111		2	ambiguous_practice	ambiguous_practice	0.0	preferred_right	300.0	0.0		7.832167899934575	0.049997700029052794
0	3.91716599999927	stim	112		2	ambiguous_practice	ambiguous_practice	0.0	preferred_right	300.0	0.0		7.882165599963628	0.05039689998375252
0	3.9675628999830224	stim	113		2	ambiguous_practice	ambiguous_practice	0.0	preferred_right	300.0	0.0		7.93256249994738	0.05051660002209246
0	4.018079500005115	stim	114		2	ambiguous_practice	ambiguous_practice	0.0	preferred_right	300.0	0.0		7.983079099969473	0.049869899987243116
0	4.067949399992358	stim	115		2	ambiguous_practice	ambiguous_practice	0.0	preferred_right	300.0	0.0		8.032948999956716	0.050336599990259856
0	4.118285999982618	stim	116		2	ambiguous_practice	ambiguous_practice	0.0	preferred_right	300.0	0.0		8.083285599946976	0.05028600001242012
0	4.168571999995038	stim	117		2	ambiguous_practice	ambiguous_practice	0.0	preferred_right	300.0	0.0		8.133571599959396	0.04986809997353703
0	4.218440099968575	stim	118		2	ambiguous_practice	ambiguous_practice	0.0	preferred_right	300.0	0.0		8.183439699932933	0.04999530001077801
0	4.268435399979353	stim	119		2	ambiguous_practice	ambiguous_practice	0.0	preferred_right	300.0	0.0		8.23343499994371	0.06838519999291748
0	4.33682059997227	stim	120		2	ambiguous_practice	ambiguous_practice	0.0	preferred_right	300.0	0.0		8.301820199936628	0.048521700024139136
0	4.38534229999641	stim	121		2	ambiguous_practice	ambiguous_practice	0.0	preferred_right	300.0	0.0		8.350341899960767	0.049950000015087426
0	4.435292300011497	stim	122		2	ambiguous_practice	ambiguous_practice	0.0	preferred_right	300.0	0.0		8.400291899975855	0.05073479999555275
0	4.48602710000705	stim	123		2	ambiguous_practice	ambiguous_practice	0.0	preferred_right	300.0	0.0		8.451026699971408	0.04929439997067675
0	4.5353214999777265	stim	124		2	ambiguous_practice	ambiguous_practice	0.0	preferred_right	300.0	0.0		8.500321099942084	0.04975070001091808
0	4.585072199988645	stim	125		2	ambiguous_practice	ambiguous_practice	0.0	preferred_right	300.0	0.0		8.550071799953002	0.05193810001946986
0	4.637010300008114	stim	126		2	ambiguous_practice	ambiguous_practice	0.0	preferred_right	300.0	0.0		8.602009899972472	0.05012009997153655
0	4.687130399979651	stim	127		2	ambiguous_practice	ambiguous_practice	0.0	preferred_right	300.0	0.0		8.652129999944009	0.049996000016108155
0	4.737126399995759	stim	128		2	ambiguous_practice	ambiguous_practice	0.0	preferred_right	300.0	0.0		8.702125999960117	0.05042380001395941
0	4.7875502000097185	stim	129		2	ambiguous_practice	ambiguous_practice	0.0	preferred_right	300.0	0.0		8.752549799974076	0.05017499998211861
0	4.837725199991837	stim	130		2	ambiguous_practice	ambiguous_practice	0.0	preferred_right	300.0	0.0		8.802724799956195	0.04973440000321716
0	4.887459599995054	stim	131		2	ambiguous_practice	ambiguous_practice	0.0	preferred_right	300.0	0.0		8.852459199959412	0.04989470000145957
0	4.937354299996514	stim	132		2	ambiguous_practice	ambiguous_practice	0.0	preferred_right	300.0	0.0		8.902353899960872	0.050083199981600046
0	4.987437499978114	stim	133		2	ambiguous_practice	ambiguous_practice	0.0	preferred_right	300.0	0.0		8.952437099942472	0.04942450002999976
0	5.036862000008114	stim	134		2	ambiguous_practice	ambiguous_practice	0.0	preferred_right	300.0	0.0		9.001861599972472	0.0499714000034146
0	5.086833400011528	stim	135		2	ambiguous_practice	ambiguous_practice	0.0	preferred_right	300.0	0.0		9.051832999975886	0.051601899962406605
0	5.138435299973935	stim	136		2	ambiguous_practice	ambiguous_practice	0.0	preferred_right	300.0	0.0		9.103434899938293	0.04887709999457002
0	5.187312399968505	stim	137		2	ambiguous_practice	ambiguous_practice	0.0	preferred_right	300.0	0.0		9.152311999932863	0.049871600000187755
0	5.237183999968693	stim	138		2	ambiguous_practice	ambiguous_practice	0.0	preferred_right	300.0	0.0		9.20218359993305	0.05032460001530126
0	5.287508599983994	stim	139		2	ambiguous_practice	ambiguous_practice	0.0	preferred_right	300.0	0.0		9.252508199948352	0.04913599998690188
0	5.336644599970896	stim	140		2	ambiguous_practice	ambiguous_practice	0.0	preferred_right	300.0	0.0		9.301644199935254	0.05034539999905974
0	5.3869899999699555	stim	141		2	ambiguous_practice	ambiguous_practice	0.0	preferred_right	300.0	0.0		9.351989599934313	0.050181500031612813
0	5.437171500001568	stim	142		2	ambiguous_practice	ambiguous_practice	0.0	preferred_right	300.0	0.0		9.402171099965926	0.05010599998058751
0	5.487277499982156	stim	143		2	ambiguous_practice	ambiguous_practice	0.0	preferred_right	300.0	0.0		9.452277099946514	0.04996089998167008
0	5.537238399963826	stim	144		2	ambiguous_practice	ambiguous_practice	0.0	preferred_right	300.0	0.0		9.502237999928184	0.0498978000250645
0	5.58713619998889	stim	145		2	ambiguous_practice	ambiguous_practice	0.0	preferred_right	300.0	0.0		9.552135799953248	0.0499522999743931
0	5.6370884999632835	stim	146		2	ambiguous_practice	ambiguous_practice	0.0	preferred_right	300.0	0.0		9.602088099927641	0.050529700005427
0	5.6876181999687105	stim	147		2	ambiguous_practice	ambiguous_practice	0.0	preferred_right	300.0	0.0		9.652617799933068	0.0494260000414215
0	5.737044200010132	stim	148		2	ambiguous_practice	ambiguous_practice	0.0	preferred_right	300.0	0.0		9.70204379997449	0.05022629996528849
0	5.7872704999754205	stim	149		2	ambiguous_practice	ambiguous_practice	0.0	preferred_right	300.0	0.0		9.752270099939778	0.050058400025591254
0	5.837328900001012	stim	150		2	ambiguous_practice	ambiguous_practice	0.0	preferred_right	300.0	0.0		9.80232849996537	0.050117700011469424
0	5.887446600012481	stim	151		2	ambiguous_practice	ambiguous_practice	0.0	preferred_right	300.0	0.0		9.85244619997684	0.04948829999193549
0	5.936934900004417	stim	152		2	ambiguous_practice	ambiguous_practice	0.0	preferred_right	300.0	0.0		9.901934499968775	0.05130769999232143
0	5.988242599996738	stim	153		2	ambiguous_practice	ambiguous_practice	0.0	preferred_right	300.0	0.0		9.953242199961096	0.04956969997147098
0	6.037812299968209	stim	154		2	ambiguous_practice	ambiguous_practice	0.0	preferred_right	300.0	0.0		10.002811899932567	0.05005030002212152
0	6.087862599990331	stim	155		2	ambiguous_practice	ambiguous_practice	0.0	preferred_right	300.0	0.0		10.052862199954689	0.04915259999688715
0	6.137015199987218	stim	156		2	ambiguous_practice	ambiguous_practice	0.0	preferred_right	300.0	0.0		10.102014799951576	0.05028440000023693
0	6.187299599987455	stim	157		2	ambiguous_practice	ambiguous_practice	0.0	preferred_right	300.0	0.0		10.152299199951813	0.050068499986082315
0	6.237368099973537	stim	158		2	ambiguous_practice	ambiguous_practice	0.0	preferred_right	300.0	0.0		10.202367699937895	0.050238800002261996
0	6.287606899975799	stim	159		2	ambiguous_practice	ambiguous_practice	0.0	preferred_right	300.0	0.0		10.252606499940157	0.04979530000127852
0	6.3374021999770775	stim	160		2	ambiguous_practice	ambiguous_practice	0.0	preferred_right	300.0	0.0		10.302401799941435	0.050572300038766116
0	6.387974500015844	stim	161		2	ambiguous_practice	ambiguous_practice	0.0	preferred_right	300.0	0.0		10.352974099980202	0.049917700001969934
0	6.437892200017814	stim	162		2	ambiguous_practice	ambiguous_practice	0.0	preferred_right	300.0	0.0		10.402891799982172	0.050113099976442754
0	6.488005299994256	stim	163		2	ambiguous_practice	ambiguous_practice	0.0	preferred_right	300.0	0.0		10.453004899958614	0.05007340002339333
0	6.53807870001765	stim	164		2	ambiguous_practice	ambiguous_practice	0.0	preferred_right	300.0	0.0		10.503078299982008	0.04942029999801889
0	6.587499000015669	stim	165		2	ambiguous_practice	ambiguous_practice	0.0	preferred_right	300.0	0.0		10.552498599980026	0.05032009998103604
0	6.637819099996705	stim	166		2	ambiguous_practice	ambiguous_practice	0.0	preferred_right	300.0	0.0		10.602818699961063	0.05024830001639202
0	6.688067400013097	stim	167		2	ambiguous_practice	ambiguous_practice	0.0	preferred_right	300.0	0.0		10.653066999977455	0.04993859998648986
0	6.7380059999995865	stim	168		2	ambiguous_practice	ambiguous_practice	0.0	preferred_right	300.0	0.0		10.703005599963944	0.0499091999954544
0	6.787915199995041	stim	169		2	ambiguous_practice	ambiguous_practice	0.0	preferred_right	300.0	0.0		10.752914799959399	0.04983249999349937
0	6.83774769998854	stim	170		2	ambiguous_practice	ambiguous_practice	0.0	preferred_right	300.0	0.0		10.802747299952898	0.05046589998528361
0	6.888213599973824	stim	171		2	ambiguous_practice	ambiguous_practice	0.0	preferred_right	300.0	0.0		10.853213199938182	0.050188500026706606
0	6.9384021000005305	stim	172		2	ambiguous_practice	ambiguous_practice	0.0	preferred_right	300.0	0.0		10.903401699964888	0.04984089999925345
0	6.988242999999784	stim	173		2	ambiguous_practice	ambiguous_practice	0.0	preferred_right	300.0	0.0		10.953242599964142	0.05004679999547079
0	7.038289799995255	stim	174		2	ambiguous_practice	ambiguous_practice	0.0	preferred_right	300.0	0.0		11.003289399959613	0.05039220000617206
0	7.088682000001427	stim	175		2	ambiguous_practice	ambiguous_practice	0.0	preferred_right	300.0	0.0		11.053681599965785	0.0495917999651283
0	7.138273799966555	stim	176		2	ambiguous_practice	ambiguous_practice	0.0	preferred_right	300.0	0.0		11.103273399930913	0.050338300003204495
0	7.18861209996976	stim	177		2	ambiguous_practice	ambiguous_practice	0.0	preferred_right	300.0	0.0		11.153611699934117	0.05037210002774373
0	7.238984199997503	stim	178		2	ambiguous_practice	ambiguous_practice	0.0	preferred_right	300.0	0.0		11.203983799961861	0.05101180000929162
0	7.289996000006795	stim	179		2	ambiguous_practice	ambiguous_practice	0.0	preferred_right	300.0	0.0		11.254995599971153	0.049994600005447865
0	7.339990600012243	stim	180		2	ambiguous_practice	ambiguous_practice	0.0	preferred_right	300.0	0.0		11.3049901999766	0.06695059995399788
0	7.406941199966241	stim	181		2	ambiguous_practice	ambiguous_practice	0.0	preferred_right	300.0	0.0		11.371940799930599	0.04948430001968518
0	7.456425499985926	stim	182		2	ambiguous_practice	ambiguous_practice	0.0	preferred_right	300.0	0.0		11.421425099950284	0.05032460001530126
0	7.506750100001227	stim	183		2	ambiguous_practice	ambiguous_practice	0.0	preferred_right	300.0	0.0		11.471749699965585	0.049020899983588606
0	7.555770999984816	stim	184		2	ambiguous_practice	ambiguous_practice	0.0	preferred_right	300.0	0.0		11.520770599949174	0.049955800001043826
0	7.6057267999858595	stim	185		2	ambiguous_practice	ambiguous_practice	0.0	preferred_right	300.0	0.0		11.570726399950217	0.05080860003363341
0	7.656535400019493	stim	186		2	ambiguous_practice	ambiguous_practice	0.0	preferred_right	300.0	0.0		11.62153499998385	0.05066299997270107
0	7.707198399992194	stim	187		2	ambiguous_practice	ambiguous_practice	0.0	preferred_right	300.0	0.0		11.672197999956552	0.05037910002283752
0	7.7575775000150315	stim	188		2	ambiguous_practice	ambiguous_practice	0.0	preferred_right	300.0	0.0		11.72257709997939	0.04973719996633008
0	7.807314699981362	stim	189		2	ambiguous_practice	ambiguous_practice	0.0	preferred_right	300.0	0.0		11.77231429994572	0.04992570000467822
0	7.85724039998604	stim	190		2	ambiguous_practice	ambiguous_practice	0.0	preferred_right	300.0	0.0		11.822239999950398	0.06607569998595864
0	7.9233160999719985	stim	191		2	ambiguous_practice	ambiguous_practice	0.0	preferred_right	300.0	0.0		11.888315699936356	0.0497987000271678
0	7.973114799999166	stim	192		2	ambiguous_practice	ambiguous_practice	0.0	preferred_right	300.0	0.0		11.938114399963524	0.050322099996265024
0	8.023436899995431	stim	193		2	ambiguous_practice	ambiguous_practice	0.0	preferred_right	300.0	0.0		11.98843649995979	0.049744400021154433
0	8.073181300016586	stim	194		2	ambiguous_practice	ambiguous_practice	0.0	preferred_right	300.0	0.0		12.038180899980944	0.05002799996873364
0	8.12320929998532	stim	195		2	ambiguous_practice	ambiguous_practice	0.0	preferred_right	300.0	0.0		12.088208899949677	0.050499600009061396
0	8.17370889999438	stim	196		2	ambiguous_practice	ambiguous_practice	0.0	preferred_right	300.0	0.0		12.138708499958739	0.04960309999296442
0	8.223311999987345	stim	197		2	ambiguous_practice	ambiguous_practice	0.0	preferred_right	300.0	0.0		12.188311599951703	0.049987100006546825
0	8.273299099993892	stim	198		2	ambiguous_practice	ambiguous_practice	0.0	preferred_right	300.0	0.0		12.23829869995825	0.049615100026130676
0	8.322914200020023	stim	199		2	ambiguous_practice	ambiguous_practice	0.0	preferred_right	300.0	0.0		12.28791379998438	0.05066159996204078
0	8.373575799982063	stim	200		2	ambiguous_practice	ambiguous_practice	0.0	preferred_right	300.0	0.0		12.338575399946421	0.04977630003122613
0	8.42335210001329	stim	201		2	ambiguous_practice	ambiguous_practice	0.0	preferred_right	300.0	0.0		12.388351699977648	0.05019819998415187
0	8.473550299997441	stim	202		2	ambiguous_practice	ambiguous_practice	0.0	preferred_right	300.0	0.0		12.4385498999618	0.04988000000594184
0	8.523430300003383	stim	203		2	ambiguous_practice	ambiguous_practice	0.0	preferred_right	300.0	0.0		12.488429899967741	0.04988269996829331
0	8.573312999971677	stim	204		2	ambiguous_practice	ambiguous_practice	0.0	preferred_right	300.0	0.0		12.538312599936035	0.05013440002221614
0	8.623447399993893	stim	205		2	ambiguous_practice	ambiguous_practice	0.0	preferred_right	300.0	0.0		12.58844699995825	0.04984970000805333
0	8.673297100001946	stim	206		2	ambiguous_practice	ambiguous_practice	0.0	preferred_right	300.0	0.0		12.638296699966304	0.05001559999072924
0	8.723312699992675	stim	207		2	ambiguous_practice	ambiguous_practice	0.0	preferred_right	300.0	0.0		12.688312299957033	0.05037589999847114
0	8.773688599991146	stim	208		2	ambiguous_practice	ambiguous_practice	0.0	preferred_right	300.0	0.0		12.738688199955504	0.04955060000065714
0	8.823239199991804	stim	209		2	ambiguous_practice	ambiguous_practice	0.0	preferred_right	300.0	0.0		12.788238799956162	0.05053439998300746
0	8.873773599974811	stim	210		2	ambiguous_practice	ambiguous_practice	0.0	preferred_right	300.0	0.0		12.838773199939169	0.04998300003353506
0	8.923756600008346	stim	211		2	ambiguous_practice	ambiguous_practice	0.0	preferred_right	300.0	0.0		12.888756199972704	0.04989929997827858
0	8.973655899986625	stim	212		2	ambiguous_practice	ambiguous_practice	0.0	preferred_right	300.0	0.0		12.938655499950983	0.050188800028990954
0	9.023844700015616	stim	213		2	ambiguous_practice	ambiguous_practice	0.0	preferred_right	300.0	0.0		12.988844299979974	0.05010209995089099
0	9.073946799966507	stim	214		2	ambiguous_practice	ambiguous_practice	0.0	preferred_right	300.0	0.0		13.038946399930865	0.04997190000722185
0	9.123918699973729	stim	215		2	ambiguous_practice	ambiguous_practice	0.0	preferred_right	300.0	0.0		13.088918299938086	0.050228800042532384
0	9.174147500016261	stim	216		2	ambiguous_practice	ambiguous_practice	0.0	preferred_right	300.0	0.0		13.139147099980619	0.049961999990046024
0	9.224109500006307	stim	217		2	ambiguous_practice	ambiguous_practice	0.0	preferred_right	300.0	0.0		13.189109099970665	0.050095100014004856
0	9.274204600020312	stim	218		2	ambiguous_practice	ambiguous_practice	0.0	preferred_right	300.0	0.0		13.23920419998467	0.04975669999839738
0	9.32396130001871	stim	219		2	ambiguous_practice	ambiguous_practice	0.0	preferred_right	300.0	0.0		13.288960899983067	0.05048159998841584
0	9.374442900007125	stim	220		2	ambiguous_practice	ambiguous_practice	0.0	preferred_right	300.0	0.0		13.339442499971483	0.050110000011045486
0	9.42455290001817	stim	221		2	ambiguous_practice	ambiguous_practice	0.0	preferred_right	300.0	0.0		13.389552499982528	0.05008239997550845
0	9.474635299993679	stim	222		2	ambiguous_practice	ambiguous_practice	0.0	preferred_right	300.0	0.0		13.439634899958037	0.049536600010469556
0	9.524171900004148	stim	223		2	ambiguous_practice	ambiguous_practice	0.0	preferred_right	300.0	0.0		13.489171499968506	0.05001999996602535
0	9.574191899970174	stim	224		2	ambiguous_practice	ambiguous_practice	0.0	preferred_right	300.0	0.0		13.539191499934532	0.0505550000234507
0	9.624746899993625	stim	225		2	ambiguous_practice	ambiguous_practice	0.0	preferred_right	300.0	0.0		13.589746499957982	0.049702799995429814
0	9.674449699989054	stim	226		2	ambiguous_practice	ambiguous_practice	0.0	preferred_right	300.0	0.0		13.639449299953412	0.05018379999091849
0	9.724633499979973	stim	227		2	ambiguous_practice	ambiguous_practice	0.0	preferred_right	300.0	0.0		13.68963309994433	0.05039779999060556
0	9.775031299970578	stim	228		2	ambiguous_practice	ambiguous_practice	0.0	preferred_right	300.0	0.0		13.740030899934936	0.05038980004610494
0	9.825421100016683	stim	229		2	ambiguous_practice	ambiguous_practice	0.0	preferred_right	300.0	0.0		13.790420699981041	0.050487899978179485
0	9.875908999994863	stim	230		2	ambiguous_practice	ambiguous_practice	0.0	preferred_right	300.0	0.0		13.84090859995922	0.03325049998238683
0	9.90915949997725	stim	231		2	ambiguous_practice	ambiguous_practice	0.0	preferred_right	300.0	0.0		13.874159099941608	0.033445200009737164
0	9.942604699986987	stim	232		2	ambiguous_practice	ambiguous_practice	0.0	preferred_right	300.0	0.0		13.907604299951345	0.033652600017376244
0	9.976257300004363	stim	233		2	ambiguous_practice	ambiguous_practice	0.0	preferred_right	300.0	0.0		13.941256899968721	0.03311560000292957
0	10.009372900007293	stim	234		2	ambiguous_practice	ambiguous_practice	0.0	preferred_right	300.0	0.0		13.97437249997165	0.03330239997012541
0	10.042675299977418	stim	235		2	ambiguous_practice	ambiguous_practice	0.0	preferred_right	300.0	0.0		14.007674899941776	0.03383730002678931
0	10.076512600004207	stim	236		2	ambiguous_practice	ambiguous_practice	0.0	preferred_right	300.0	0.0		14.041512199968565	0.03388269996503368
0	10.110395299969241	stim	237		2	ambiguous_practice	ambiguous_practice	0.0	preferred_right	300.0	0.0		14.075394899933599	0.03277310001431033
0	10.143168399983551	stim	238		2	ambiguous_practice	ambiguous_practice	0.0	preferred_right	300.0	0.0		14.10816799994791	0.03332109999610111
0	10.176489499979652	stim	239		2	ambiguous_practice	ambiguous_practice	0.0	preferred_right	300.0	0.0		14.14148909994401	0.033301300019957125
0	10.20979079999961	stim	240		2	ambiguous_practice	ambiguous_practice	0.0	preferred_right	300.0	0.0		14.174790399963968	0.033341199974529445
0	10.243131999974139	stim	241		2	ambiguous_practice	ambiguous_practice	0.0	preferred_right	300.0	0.0		14.208131599938497	0.033370900026056916
0	10.276502900000196	stim	242		2	ambiguous_practice	ambiguous_practice	0.0	preferred_right	300.0	0.0		14.241502499964554	0.032843399967532605
0	10.309346299967729	stim	243		2	ambiguous_practice	ambiguous_practice	0.0	preferred_right	300.0	0.0		14.274345899932086	0.034304200031328946
0	10.343650499999058	stim	244		2	ambiguous_practice	ambiguous_practice	0.0	preferred_right	300.0	0.0		14.308650099963415	0.033639099972788244
0	10.377289599971846	stim	245		2	ambiguous_practice	ambiguous_practice	0.0	preferred_right	300.0	0.0		14.342289199936204	0.033396100043319166
0	10.410685700015165	stim	246		2	ambiguous_practice	ambiguous_practice	0.0	preferred_right	300.0	0.0		14.375685299979523	0.033535399998072535
0	10.444221100013237	stim	247		2	ambiguous_practice	ambiguous_practice	0.0	preferred_right	300.0	0.0		14.409220699977595	0.033555899979546666
0	10.477776999992784	stim	248		2	ambiguous_practice	ambiguous_practice	0.0	preferred_right	300.0	0.0		14.442776599957142	0.033760600024834275
0	10.511537600017618	stim	249		2	ambiguous_practice	ambiguous_practice	0.0	preferred_right	300.0	0.0		14.476537199981976	0.033289199986029416
0	10.544826800003648	stim	250		2	ambiguous_practice	ambiguous_practice	0.0	preferred_right	300.0	0.0		14.509826399968006	0.032705799967516214
0	10.577532599971164	stim	251		2	ambiguous_practice	ambiguous_practice	0.0	preferred_right	300.0	0.0		14.542532199935522	0.034373900038190186
0	10.611906500009354	stim	252		2	ambiguous_practice	ambiguous_practice	0.0	preferred_right	300.0	0.0		14.576906099973712	0.04983989999163896
0	10.661746400000993	stim	253		2	ambiguous_practice	ambiguous_practice	0.0	preferred_right	300.0	0.0		14.626745999965351	0.05018909997306764
0	10.71193549997406	stim	254		2	ambiguous_practice	ambiguous_practice	0.0	preferred_right	300.0	0.0		14.676935099938419	0.050042100017890334
0	10.761977599991951	stim	255		2	ambiguous_practice	ambiguous_practice	0.0	preferred_right	300.0	0.0		14.726977199956309	0.050012300023809075
0	10.81198990001576	stim	256		2	ambiguous_practice	ambiguous_practice	0.0	preferred_right	300.0	0.0		14.776989499980118	0.04986909998115152
0	10.861858999996912	stim	257		2	ambiguous_practice	ambiguous_practice	0.0	preferred_right	300.0	0.0		14.82685859996127	0.050218200020026416
0	10.912077200016938	stim	258		2	ambiguous_practice	ambiguous_practice	0.0	preferred_right	300.0	0.0		14.877076799981296	0.04992560000391677
0	10.962002800020855	stim	259		2	ambiguous_practice	ambiguous_practice	0.0	preferred_right	300.0	0.0		14.927002399985213	0.050080199958756566
0	11.012082999979611	stim	260		2	ambiguous_practice	ambiguous_practice	0.0	preferred_right	300.0	0.0		14.97708259994397	0.04981890000635758
0	11.061901899985969	stim	261		2	ambiguous_practice	ambiguous_practice	0.0	preferred_right	300.0	0.0		15.026901499950327	0.05038229998899624
0	11.112284199974965	stim	262		2	ambiguous_practice	ambiguous_practice	0.0	preferred_right	300.0	0.0		15.077283799939323	0.04977620003046468
0	11.16206040000543	stim	263		2	ambiguous_practice	ambiguous_practice	0.0	preferred_right	300.0	0.0		15.127059999969788	0.05021149996900931
0	11.21227189997444	stim	264		2	ambiguous_practice	ambiguous_practice	0.0	preferred_right	300.0	0.0		15.177271499938797	0.050109900010284036
0	11.262381799984723	stim	265		2	ambiguous_practice	ambiguous_practice	0.0	preferred_right	300.0	0.0		15.227381399949081	0.04975830001058057
0	11.312140099995304	stim	266		2	ambiguous_practice	ambiguous_practice	0.0	preferred_right	300.0	0.0		15.277139699959662	0.0505482999724336
0	11.362688399967737	stim	267		2	ambiguous_practice	ambiguous_practice	0.0	preferred_right	300.0	0.0		15.327687999932095	0.0500342000159435
0	11.412722599983681	stim	268		2	ambiguous_practice	ambiguous_practice	0.0	preferred_right	300.0	0.0		15.377722199948039	0.05105589999584481
0	11.463778499979526	stim	269		2	ambiguous_practice	ambiguous_practice	0.0	preferred_right	300.0	0.0		15.428778099943884	0.0496178999892436
0	11.51339639996877	stim	270		2	ambiguous_practice	ambiguous_practice	0.0	preferred_right	300.0	0.0		15.478395999933127	0.05011440004454926
0	11.563510800013319	stim	271		2	ambiguous_practice	ambiguous_practice	0.0	preferred_right	300.0	0.0		15.528510399977677	0.06636949995299801
0	11.629880299966317	stim	272		2	ambiguous_practice	ambiguous_practice	0.0	preferred_right	300.0	0.0		15.594879899930675	0.05176870001014322
0	11.68164899997646	stim	273		2	ambiguous_practice	ambiguous_practice	0.0	preferred_right	300.0	0.0		15.646648599940818	0.06502060004277155
0	11.746669600019231	stim	274		2	ambiguous_practice	ambiguous_practice	0.0	preferred_right	300.0	0.0		15.71166919998359	0.04983199998969212
0	11.796501600008924	stim	275		2	ambiguous_practice	ambiguous_practice	0.0	preferred_right	300.0	0.0		15.761501199973281	0.05005299998447299
0	11.846554599993397	stim	276		2	ambiguous_practice	ambiguous_practice	0.0	preferred_right	300.0	0.0		15.811554199957754	0.050077699997927994
0	11.896632299991325	stim	277		2	ambiguous_practice	ambiguous_practice	0.0	preferred_right	300.0	0.0		15.861631899955682	0.050158699974417686
0	11.946790999965742	stim	278		2	ambiguous_practice	ambiguous_practice	0.0	preferred_right	300.0	0.0		15.9117905999301	0.0497925000381656
0	11.996583500003908	stim	279		2	ambiguous_practice	ambiguous_practice	0.0	preferred_right	300.0	0.0		15.961583099968266	0.05046649998985231
0	12.04704999999376	stim	280		2	ambiguous_practice	ambiguous_practice	0.0	preferred_right	300.0	0.0		16.012049599958118	0.04979630000889301
0	12.096846300002653	stim	281		2	ambiguous_practice	ambiguous_practice	0.0	preferred_right	300.0	0.0		16.06184589996701	0.05041929997969419
0	12.147265599982347	stim	282		2	ambiguous_practice	ambiguous_practice	0.0	preferred_right	300.0	0.0		16.112265199946705	0.049874500022269785
0	12.197140100004617	stim	283		2	ambiguous_practice	ambiguous_practice	0.0	preferred_right	300.0	0.0		16.162139699968975	0.05091679998440668
0	12.248056899989024	stim	284		2	ambiguous_practice	ambiguous_practice	0.0	preferred_right	300.0	0.0		16.21305649995338	0.04915919998893514
0	12.297216099977959	stim	285		2	ambiguous_practice	ambiguous_practice	0.0	preferred_right	300.0	0.0		16.262215699942317	0.04998810001416132
0	12.34720419999212	stim	286		2	ambiguous_practice	ambiguous_practice	0.0	preferred_right	300.0	0.0		16.312203799956478	0.05109899997478351
0	12.398303199966904	stim	287		2	ambiguous_practice	ambiguous_practice	0.0	preferred_right	300.0	0.0		16.36330279993126	0.04973640001844615
0	12.44803959998535	stim	288		2	ambiguous_practice	ambiguous_practice	0.0	preferred_right	300.0	0.0		16.413039199949708	0.048733700008597225
0	12.496773299993947	stim	289		2	ambiguous_practice	ambiguous_practice	0.0	preferred_right	300.0	0.0		16.461772899958305	0.04998210002668202
0	12.54675540002063	stim	290		2	ambiguous_practice	ambiguous_practice	0.0	preferred_right	300.0	0.0		16.511754999984987	0.050624199968297035
0	12.597379599988926	stim	291		2	ambiguous_practice	ambiguous_practice	0.0	preferred_right	300.0	0.0		16.562379199953284	0.051799000008031726
0	12.649178599996958	stim	292		2	ambiguous_practice	ambiguous_practice	0.0	preferred_right	300.0	0.0		16.614178199961316	0.04867119999835268
0	12.69784979999531	stim	293		2	ambiguous_practice	ambiguous_practice	0.0	preferred_right	300.0	0.0		16.66284939995967	0.050397499988321215
0	12.748247299983632	stim	294		2	ambiguous_practice	ambiguous_practice	0.0	preferred_right	300.0	0.0		16.71324689994799	0.049766200012527406
0	12.79801349999616	stim	295		2	ambiguous_practice	ambiguous_practice	0.0	preferred_right	300.0	0.0		16.763013099960517	0.048921799985691905
0	12.846935299981851	stim	296		2	ambiguous_practice	ambiguous_practice	0.0	preferred_right	300.0	0.0		16.81193489994621	0.05009800003608689
0	12.897033300017938	stim	297		2	ambiguous_practice	ambiguous_practice	0.0	preferred_right	300.0	0.0		16.862032899982296	0.05001029995037243
0	12.94704359996831	stim	298		2	ambiguous_practice	ambiguous_practice	0.0	preferred_right	300.0	0.0		16.91204319993267	0.0499231000430882
0	12.996966700011399	stim	299		2	ambiguous_practice	ambiguous_practice	0.0	preferred_right	300.0	0.0		16.961966299975757	0.05120849999366328
0	13.048175200005062	stim	0		2	unambiguous_practice	left_practice	0.0	preferred_right	85.0	0.0		17.01317479996942	0.04967769997892901
0	13.097852899983991	stim	1		2	unambiguous_practice	left_practice	0.0	preferred_right	85.0	0.0		17.06285249994835	0.05004420003388077
0	13.147897100017872	stim	2		2	unambiguous_practice	left_practice	0.0	preferred_right	85.0	0.0		17.11289669998223	0.049981299962382764
0	13.197878399980254	stim	3		2	unambiguous_practice	left_practice	0.0	preferred_right	85.0	0.0		17.162877999944612	0.05040840001311153
0	13.248286799993366	stim	4		2	unambiguous_practice	left_practice	0.0	preferred_right	85.0	0.0		17.213286399957724	0.04934949998278171
0	13.297636299976148	stim	5		2	unambiguous_practice	left_practice	0.0	preferred_right	85.0	0.0		17.262635899940506	0.03353020001668483
0	13.331166499992833	stim	6		2	unambiguous_practice	left_practice	0.0	preferred_right	85.0	0.0		17.29616609995719	0.03333319997182116
0	13.364499699964654	stim	7		2	unambiguous_practice	left_practice	0.0	preferred_right	85.0	0.0		17.32949929992901	0.03329880000092089
0	13.397798499965575	stim	8		2	unambiguous_practice	left_practice	0.0	preferred_right	85.0	0.0		17.362798099929933	0.0333733000443317
0	13.431171800009906	stim	9		2	unambiguous_practice	left_practice	0.0	preferred_right	85.0	0.0		17.396171399974264	0.03330949996598065
0	13.464481299975887	stim	10		2	unambiguous_practice	left_practice	0.0	preferred_right	85.0	0.0		17.429480899940245	0.033553200017195195
0	13.498034499993082	stim	11		2	unambiguous_practice	left_practice	0.0	preferred_right	85.0	0.0		17.46303409995744	0.03371270000934601
0	13.531747200002428	stim	12		2	unambiguous_practice	left_practice	0.0	preferred_right	85.0	0.0		17.496746799966786	0.03341169998748228
0	13.56515889998991	stim	13		2	unambiguous_practice	left_practice	0.0	preferred_right	85.0	0.0		17.53015849995427	0.033179700025357306
0	13.598338600015268	stim	14		2	unambiguous_practice	left_practice	0.0	preferred_right	85.0	0.0		17.563338199979626	0.033487999986391515
0	13.63182660000166	stim	15		2	unambiguous_practice	left_practice	0.0	preferred_right	85.0	0.0		17.596826199966017	0.03357480000704527
0	13.665401400008705	stim	16		2	unambiguous_practice	left_practice	0.0	preferred_right	85.0	0.0		17.630400999973062	0.03353449999121949
0	13.698935899999924	stim	17		2	unambiguous_practice	left_practice	0.0	preferred_right	85.0	0.0		17.663935499964282	0.03343670000322163
0	13.732372600003146	stim	18		2	unambiguous_practice	left_practice	0.0	preferred_right	85.0	0.0		17.697372199967504	0.03321500000311062
0	13.765587600006256	stim	19		2	unambiguous_practice	left_practice	0.0	preferred_right	85.0	0.0		17.730587199970614	0.03354829997988418
0	13.79913589998614	stim	20		2	unambiguous_practice	left_practice	0.0	preferred_right	85.0	0.0		17.7641354999505	0.03409010003088042
0	13.83322600001702	stim	21		2	unambiguous_practice	left_practice	0.0	preferred_right	85.0	0.0		17.79822559998138	0.033087799965869635
0	13.86631379998289	stim	22		2	unambiguous_practice	left_practice	0.0	preferred_right	85.0	0.0		17.83131339994725	0.03335290000541136
0	13.899666699988302	stim	23		2	unambiguous_practice	left_practice	0.0	preferred_right	85.0	0.0		17.86466629995266	0.03366229997482151
0	13.933328999963123	stim	24		2	unambiguous_practice	left_practice	0.0	preferred_right	85.0	0.0		17.89832859992748	0.03648270003031939
0	13.969811699993443	stim	25		2	unambiguous_practice	left_practice	0.0	preferred_right	85.0	0.0		17.9348112999578	0.032991699990816414
0	14.00280339998426	stim	26		2	unambiguous_practice	left_practice	0.0	preferred_right	85.0	0.0		17.967802999948617	0.03290689998539165
0	14.03571029996965	stim	27		2	unambiguous_practice	left_practice	0.0	preferred_right	85.0	0.0		18.00070989993401	0.033624500036239624
0	14.06933480000589	stim	28		2	unambiguous_practice	left_practice	0.0	preferred_right	85.0	0.0		18.03433439997025	0.033305699995253235
0	14.102640500001144	stim	29		2	unambiguous_practice	left_practice	0.0	preferred_right	85.0	0.0		18.0676400999655	0.03347209998173639
0	14.13611259998288	stim	30		2	unambiguous_practice	left_practice	0.0	preferred_right	85.0	0.0		18.101112199947238	0.03318830003263429
0	14.169300900015514	stim	31		2	unambiguous_practice	left_practice	0.0	preferred_right	85.0	0.0		18.134300499979872	0.031355699989944696
0	14.200656600005459	stim	32		2	unambiguous_practice	left_practice	0.0	preferred_right	85.0	0.0		18.165656199969817	0.049989799968898296
0	14.250646399974357	stim	33		2	unambiguous_practice	left_practice	0.0	preferred_right	85.0	0.0		18.215645999938715	0.050136800040490925
0	14.300783200014848	stim	34		2	unambiguous_practice	left_practice	0.0	preferred_right	85.0	0.0		18.265782799979206	0.050429900002200156
0	14.351213100017048	stim	35		2	unambiguous_practice	left_practice	0.0	preferred_right	85.0	0.0		18.316212699981406	0.05216539994580671
0	14.403378499962855	stim	36		2	unambiguous_practice	left_practice	0.0	preferred_right	85.0	0.0		18.368378099927213	0.05073720001382753
0	14.454115699976683	stim	37		2	unambiguous_practice	left_practice	0.0	preferred_right	85.0	0.0		18.41911529994104	0.04826579999644309
0	14.502381499973126	stim	38		2	unambiguous_practice	left_practice	0.0	preferred_right	85.0	0.0		18.467381099937484	0.050587100035045296
0	14.552968600008171	stim	39		2	unambiguous_practice	left_practice	0.0	preferred_right	85.0	0.0		18.51796819997253	0.05127669998910278
0	14.604245299997274	stim	40		2	unambiguous_practice	left_practice	0.0	preferred_right	85.0	0.0		18.56924489996163	0.049412299995310605
0	14.653657599992584	stim	41		2	unambiguous_practice	left_practice	0.0	preferred_right	85.0	0.0		18.618657199956942	0.04936070000985637
0	14.70301830000244	stim	42		2	unambiguous_practice	left_practice	0.0	preferred_right	85.0	0.0		18.6680178999668	0.04983269999502227
0	14.752850999997463	stim	43		2	unambiguous_practice	left_practice	0.0	preferred_right	85.0	0.0		18.71785059996182	0.0502950000227429
0	14.803146000020206	stim	44		2	unambiguous_practice	left_practice	0.0	preferred_right	85.0	0.0		18.768145599984564	0.05178319994593039
0	14.854929199966136	stim	45		2	unambiguous_practice	left_practice	0.0	preferred_right	85.0	0.0		18.819928799930494	0.050065700022969395
0	14.904994899989106	stim	46		2	unambiguous_practice	left_practice	0.0	preferred_right	85.0	0.0		18.869994499953464	0.04791989998193458
0	14.95291479997104	stim	47		2	unambiguous_practice	left_practice	0.0	preferred_right	85.0	0.0		18.9179143999354	0.03353320003952831
0	14.986448000010569	stim	48		2	unambiguous_practice	left_practice	0.0	preferred_right	85.0	0.0		18.951447599974927	0.03349929995601997
0	15.019947299966589	stim	49		2	unambiguous_practice	left_practice	0.0	preferred_right	85.0	0.0		18.984946899930947	0.03355550003470853
0	15.053502800001297	stim	50		2	unambiguous_practice	left_practice	0.0	preferred_right	85.0	0.0		19.018502399965655	0.04998780001187697
0	15.103490600013174	stim	51		2	unambiguous_practice	left_practice	0.0	preferred_right	85.0	0.0		19.068490199977532	0.03331819997401908
0	15.136808799987193	stim	52		2	unambiguous_practice	left_practice	0.0	preferred_right	85.0	0.0		19.10180839995155	0.03332550002960488
0	15.170134300016798	stim	53		2	unambiguous_practice	left_practice	0.0	preferred_right	85.0	0.0		19.135133899981156	0.03292899997904897
0	15.203063299995847	stim	54		2	unambiguous_practice	left_practice	0.0	preferred_right	85.0	0.0		19.168062899960205	0.033517399977426976
0	15.236580699973274	stim	55		2	unambiguous_practice	left_practice	0.0	preferred_right	85.0	0.0		19.201580299937632	0.033468900015577674
0	15.270049599988852	stim	56		2	unambiguous_practice	left_practice	0.0	preferred_right	85.0	0.0		19.23504919995321	0.03290210000704974
0	15.302951699995901	stim	57		2	unambiguous_practice	left_practice	0.0	preferred_right	85.0	0.0		19.26795129996026	0.033298399997875094
0	15.336250099993777	stim	58		2	unambiguous_practice	left_practice	0.0	preferred_right	85.0	0.0		19.301249699958134	0.03383339999709278
0	15.37008349999087	stim	59		2	unambiguous_practice	left_practice	0.0	preferred_right	85.0	0.0		19.335083099955227	0.0332485000253655
0	15.403332000016235	stim	60		2	unambiguous_practice	left_practice	0.0	preferred_right	85.0	0.0		19.368331599980593	0.03386819997103885
0	15.437200199987274	stim	61		2	unambiguous_practice	left_practice	0.0	preferred_right	85.0	0.0		19.40219979995163	0.033339700021315366
0	15.470539900008589	stim	62		2	unambiguous_practice	left_practice	0.0	preferred_right	85.0	0.0		19.435539499972947	0.03342990000965074
0	15.50396980001824	stim	63		2	unambiguous_practice	left_practice	0.0	preferred_right	85.0	0.0		19.468969399982598	0.033475899952463806
0	15.537445699970704	stim	64		2	unambiguous_practice	left_practice	0.0	preferred_right	85.0	0.0		19.50244529993506	0.03272010001819581
0	15.5701657999889	stim	65		2	unambiguous_practice	left_practice	0.0	preferred_right	85.0	0.0		19.535165399953257	0.034061199985444546
0	15.604226999974344	stim	66		2	unambiguous_practice	left_practice	0.0	preferred_right	85.0	0.0		19.569226599938702	0.03325460001360625
0	15.63748159998795	stim	67		2	unambiguous_practice	left_practice	0.0	preferred_right	85.0	0.0		19.602481199952308	0.03334100003121421
0	15.670822600019164	stim	68		2	unambiguous_practice	left_practice	0.0	preferred_right	85.0	0.0		19.635822199983522	0.03361189999850467
0	15.704434500017669	stim	69		2	unambiguous_practice	left_practice	0.0	preferred_right	85.0	0.0		19.669434099982027	0.033421100000850856
0	15.73785560001852	stim	70		2	unambiguous_practice	left_practice	0.0	preferred_right	85.0	0.0		19.702855199982878	0.0333149999496527
0	15.771170599968173	stim	71		2	unambiguous_practice	left_practice	0.0	preferred_right	85.0	0.0		19.73617019993253	0.032846600050106645
0	15.80401720001828	stim	72		2	unambiguous_practice	left_practice	0.0	preferred_right	85.0	0.0		19.769016799982637	0.03340389998629689
0	15.837421100004576	stim	73		2	unambiguous_practice	left_practice	0.0	preferred_right	85.0	0.0		19.802420699968934	0.0337510000099428
0	15.871172100014519	stim	74		2	unambiguous_practice	left_practice	0.0	preferred_right	85.0	0.0		19.836171699978877	0.03377139999065548
0	15.904943500005174	stim	75		2	unambiguous_practice	left_practice	0.0	preferred_right	85.0	0.0		19.869943099969532	0.033407799957785755
0	15.93835129996296	stim	76		2	unambiguous_practice	left_practice	0.0	preferred_right	85.0	0.0		19.903350899927318	0.03348730003926903
0	15.97183860000223	stim	77		2	unambiguous_practice	left_practice	0.0	preferred_right	85.0	0.0		19.936838199966587	0.033843700017314404
0	16.005682300019544	stim	78		2	unambiguous_practice	left_practice	0.0	preferred_right	85.0	0.0		19.9706818999839	0.03321470000082627
0	16.03889700002037	stim	79		2	unambiguous_practice	left_practice	0.0	preferred_right	85.0	0.0		20.003896599984728	0.03375109995249659
0	16.072648099972866	stim	80		2	unambiguous_practice	left_practice	0.0	preferred_right	85.0	0.0		20.037647699937224	0.03322330000810325
0	16.10587139998097	stim	81		2	unambiguous_practice	left_practice	0.0	preferred_right	85.0	0.0		20.070870999945328	0.033167699992191046
0	16.13903909997316	stim	82		2	unambiguous_practice	left_practice	0.0	preferred_right	85.0	0.0		20.10403869993752	0.03314780001528561
0	16.172186899988446	stim	83		2	unambiguous_practice	left_practice	0.0	preferred_right	85.0	0.0		20.137186499952804	0.03344079997623339
0	16.20562769996468	stim	84		2	unambiguous_practice	left_practice	0.0	preferred_right	85.0	0.0		20.170627299929038	0.03334350005025044
0	16.23897120001493	stim	0		2	unambiguous_practice	left_practice	0.0	preferred_right	98.0	85.0		20.203970799979288	0.03342979995068163
0	16.272400999965612	stim	1		2	unambiguous_practice	left_practice	0.0	preferred_right	98.0	85.0		20.23740059992997	0.03325760003644973
0	16.30565860000206	stim	2		2	unambiguous_practice	left_practice	0.0	preferred_right	98.0	85.0		20.27065819996642	0.03402009996352717
0	16.33967869996559	stim	3		2	unambiguous_practice	left_practice	0.0	preferred_right	98.0	85.0		20.304678299929947	0.03338820004137233
0	16.37306690000696	stim	4		2	unambiguous_practice	left_practice	0.0	preferred_right	98.0	85.0		20.33806649997132	0.03330680000362918
0	16.40637370001059	stim	5		2	unambiguous_practice	left_practice	0.0	preferred_right	98.0	85.0		20.371373299974948	0.033246400009375066
0	16.439620100019965	stim	6		2	unambiguous_practice	left_practice	0.0	preferred_right	98.0	85.0		20.404619699984323	0.033509999979287386
0	16.473130099999253	stim	7		2	unambiguous_practice	left_practice	0.0	preferred_right	98.0	85.0		20.43812969996361	0.033415200014133006
0	16.506545300013386	stim	8		2	unambiguous_practice	left_practice	0.0	preferred_right	98.0	85.0		20.471544899977744	0.032727899961173534
0	16.53927319997456	stim	9		2	unambiguous_practice	left_practice	0.0	preferred_right	98.0	85.0		20.504272799938917	0.03330619999906048
0	16.57257939997362	stim	10		2	unambiguous_practice	left_practice	0.0	preferred_right	98.0	85.0		20.537578999937978	0.03383120003854856
0	16.60641060001217	stim	11		2	unambiguous_practice	left_practice	0.0	preferred_right	98.0	85.0		20.571410199976526	0.03354909998597577
0	16.639959699998144	stim	12		2	unambiguous_practice	left_practice	0.0	preferred_right	98.0	85.0		20.604959299962502	0.03339970001252368
0	16.673359400010668	stim	13		2	unambiguous_practice	left_practice	0.0	preferred_right	98.0	85.0		20.638358999975026	0.03339940001023933
0	16.706758800020907	stim	14		2	unambiguous_practice	left_practice	0.0	preferred_right	98.0	85.0		20.671758399985265	0.03342789999442175
0	16.74018670001533	stim	15		2	unambiguous_practice	left_practice	0.0	preferred_right	98.0	85.0		20.705186299979687	0.033671699988190085
0	16.77385840000352	stim	16		2	unambiguous_practice	left_practice	0.0	preferred_right	98.0	85.0		20.738857999967877	0.03267419995972887
0	16.806532599963248	stim	17		2	unambiguous_practice	left_practice	0.0	preferred_right	98.0	85.0		20.771532199927606	0.033796300005633384
0	16.84032889996888	stim	18		2	unambiguous_practice	left_practice	0.0	preferred_right	98.0	85.0		20.80532849993324	0.033569500024896115
0	16.873898399993777	stim	19		2	unambiguous_practice	left_practice	0.0	preferred_right	98.0	85.0		20.838897999958135	0.03335390001302585
0	16.907252300006803	stim	20		2	unambiguous_practice	left_practice	0.0	preferred_right	98.0	85.0		20.87225189997116	0.033216899959370494
0	16.940469199966174	stim	21		2	unambiguous_practice	left_practice	0.0	preferred_right	98.0	85.0		20.90546879993053	0.03371129999868572
0	16.97418049996486	stim	22		2	unambiguous_practice	left_practice	0.0	preferred_right	98.0	85.0		20.939180099929217	0.03345190000254661
0	17.007632399967406	stim	23		2	unambiguous_practice	left_practice	0.0	preferred_right	98.0	85.0		20.972631999931764	0.03337509999983013
0	17.041007499967236	stim	24		2	unambiguous_practice	left_practice	0.0	preferred_right	98.0	85.0		21.006007099931594	0.0332060000509955
0	17.07421350001823	stim	25		2	unambiguous_practice	left_practice	0.0	preferred_right	98.0	85.0		21.03921309998259	0.03380909998668358
0	17.108022600004915	stim	26		2	unambiguous_practice	left_practice	0.0	preferred_right	98.0	85.0		21.073022199969273	0.03356619999976829
0	17.141588800004683	stim	27		2	unambiguous_practice	left_practice	0.0	preferred_right	98.0	85.0		21.10658839996904	0.033561799966264516
0	17.175150599970948	stim	28		2	unambiguous_practice	left_practice	0.0	preferred_right	98.0	85.0		21.140150199935306	0.033391700009815395
0	17.208542299980763	stim	29		2	unambiguous_practice	left_practice	0.0	preferred_right	98.0	85.0		21.17354189994512	0.033353000006172806
0	17.241895299986936	stim	30		2	unambiguous_practice	left_practice	0.0	preferred_right	98.0	85.0		21.206894899951294	0.03338620002614334
0	17.27528150001308	stim	31		2	unambiguous_practice	left_practice	0.0	preferred_right	98.0	85.0		21.240281099977437	0.032939700002316386
0	17.308221200015396	stim	32		2	unambiguous_practice	left_practice	0.0	preferred_right	98.0	85.0		21.273220799979754	0.03335659997537732
0	17.341577799990773	stim	33		2	unambiguous_practice	left_practice	0.0	preferred_right	98.0	85.0		21.30657739995513	0.03375970001798123
0	17.375337500008754	stim	34		2	unambiguous_practice	left_practice	0.0	preferred_right	98.0	85.0		21.340337099973112	0.03332980000413954
0	17.408667300012894	stim	35		2	unambiguous_practice	left_practice	0.0	preferred_right	98.0	85.0		21.373666899977252	0.0333779999637045
0	17.4420452999766	stim	36		2	unambiguous_practice	left_practice	0.0	preferred_right	98.0	85.0		21.407044899940956	0.0333540000137873
0	17.475399299990386	stim	37		2	unambiguous_practice	left_practice	0.0	preferred_right	98.0	85.0		21.440398899954744	0.03391429997282103
0	17.509313599963207	stim	38		2	unambiguous_practice	left_practice	0.0	preferred_right	98.0	85.0		21.474313199927565	0.03314240003237501
0	17.542455999995582	stim	39		2	unambiguous_practice	left_practice	0.0	preferred_right	98.0	85.0		21.50745559995994	0.03299629996763542
0	17.575452299963217	stim	40		2	unambiguous_practice	left_practice	0.0	preferred_right	98.0	85.0		21.540451899927575	0.03392830002121627
0	17.609380599984434	stim	41		2	unambiguous_practice	left_practice	0.0	preferred_right	98.0	85.0		21.57438019994879	0.033320399990770966
0	17.642700999975204	stim	42		2	unambiguous_practice	left_practice	0.0	preferred_right	98.0	85.0		21.607700599939562	0.0335155000211671
0	17.67621649999637	stim	43		2	unambiguous_practice	left_practice	0.0	preferred_right	98.0	85.0		21.64121609996073	0.03341450000880286
0	17.709631000005174	stim	44		2	unambiguous_practice	left_practice	0.0	preferred_right	98.0	85.0		21.674630599969532	0.03323959995759651
0	17.74287059996277	stim	45		2	unambiguous_practice	left_practice	0.0	preferred_right	98.0	85.0		21.70787019992713	0.033824500045739114
0	17.77669510000851	stim	46		2	unambiguous_practice	left_practice	0.0	preferred_right	98.0	85.0		21.741694699972868	0.03339799999957904
0	17.81009310000809	stim	47		2	unambiguous_practice	left_practice	0.0	preferred_right	98.0	85.0		21.775092699972447	0.03266899997834116
0	17.84276209998643	stim	48		2	unambiguous_practice	left_practice	0.0	preferred_right	98.0	85.0		21.807761699950788	0.03381799999624491
0	17.876580099982675	stim	49		2	unambiguous_practice	left_practice	0.0	preferred_right	98.0	85.0		21.841579699947033	0.03340160002699122
0	17.909981700009666	stim	50		2	unambiguous_practice	left_practice	0.0	preferred_right	98.0	85.0		21.874981299974024	0.0333595999982208
0	17.943341300007887	stim	51		2	unambiguous_practice	left_practice	0.0	preferred_right	98.0	85.0		21.908340899972245	0.03339820000110194
0	17.97673950000899	stim	52		2	unambiguous_practice	left_practice	0.0	preferred_right	98.0	85.0		21.941739099973347	0.033738099969923496
0	18.010477599978913	stim	53		2	unambiguous_practice	left_practice	0.0	preferred_right	98.0	85.0		21.97547719994327	0.03335500002140179
0	18.043832600000314	stim	54		2	unambiguous_practice	left_practice	0.0	preferred_right	98.0	85.0		22.008832199964672	0.033019799971953034
0	18.076852399972267	stim	55		2	unambiguous_practice	left_practice	0.0	preferred_right	98.0	85.0		22.041851999936625	0.03410260000964627
0	18.110954999981914	stim	56		2	unambiguous_practice	left_practice	0.0	preferred_right	98.0	85.0		22.07595459994627	0.033329500001855195
0	18.14428449998377	stim	57		2	unambiguous_practice	left_practice	0.0	preferred_right	98.0	85.0		22.109284099948127	0.033344299998134375
0	18.177628799981903	stim	58		2	unambiguous_practice	left_practice	0.0	preferred_right	98.0	85.0		22.14262839994626	0.033225800027139485
0	18.210854600009043	stim	59		2	unambiguous_practice	left_practice	0.0	preferred_right	98.0	85.0		22.1758541999734	0.03331259998958558
0	18.24416719999863	stim	60		2	unambiguous_practice	left_practice	0.0	preferred_right	98.0	85.0		22.209166799962986	0.03343830001540482
0	18.277605500014033	stim	61		2	unambiguous_practice	left_practice	0.0	preferred_right	98.0	85.0		22.24260509997839	0.03273939999053255
0	18.310344900004566	stim	62		2	unambiguous_practice	left_practice	0.0	preferred_right	98.0	85.0		22.275344499968924	0.03390989999752492
0	18.34425480000209	stim	63		2	unambiguous_practice	left_practice	0.0	preferred_right	98.0	85.0		22.30925439996645	0.03361939999740571
0	18.377874199999496	stim	64		2	unambiguous_practice	left_practice	0.0	preferred_right	98.0	85.0		22.342873799963854	0.03346930001862347
0	18.41134350001812	stim	65		2	unambiguous_practice	left_practice	0.0	preferred_right	98.0	85.0		22.376343099982478	0.03336459997808561
0	18.444708099996205	stim	66		2	unambiguous_practice	left_practice	0.0	preferred_right	98.0	85.0		22.409707699960563	0.03351500001735985
0	18.478223100013565	stim	67		2	unambiguous_practice	left_practice	0.0	preferred_right	98.0	85.0		22.443222699977923	0.033157299971207976
0	18.511380399984773	stim	68		2	unambiguous_practice	left_practice	0.0	preferred_right	98.0	85.0		22.47637999994913	0.03338059998350218
0	18.544760999968275	stim	69		2	unambiguous_practice	left_practice	0.0	preferred_right	98.0	85.0		22.509760599932633	0.0327155000413768
0	18.577476500009652	stim	70		2	unambiguous_practice	left_practice	0.0	preferred_right	98.0	85.0		22.54247609997401	0.03387649997603148
0	18.611352999985684	stim	71		2	unambiguous_practice	left_practice	0.0	preferred_right	98.0	85.0		22.57635259995004	0.0331550000119023
0	18.644507999997586	stim	72		2	unambiguous_practice	left_practice	0.0	preferred_right	98.0	85.0		22.609507599961944	0.03346970002166927
0	18.677977700019255	stim	73		2	unambiguous_practice	left_practice	0.0	preferred_right	98.0	85.0		22.642977299983613	0.03354319999925792
0	18.711520900018513	stim	74		2	unambiguous_practice	left_practice	0.0	preferred_right	98.0	85.0		22.67652049998287	0.03341549995820969
0	18.744936399976723	stim	75		2	unambiguous_practice	left_practice	0.0	preferred_right	98.0	85.0		22.70993599994108	0.033586000034119934
0	18.778522400010843	stim	76		2	unambiguous_practice	left_practice	0.0	preferred_right	98.0	85.0		22.7435219999752	0.0335015999735333
0	18.812023999984376	stim	77		2	unambiguous_practice	left_practice	0.0	preferred_right	98.0	85.0		22.777023599948734	0.033009500009939075
0	18.845033499994315	stim	78		2	unambiguous_practice	left_practice	0.0	preferred_right	98.0	85.0		22.810033099958673	0.03352120000636205
0	18.878554700000677	stim	79		2	unambiguous_practice	left_practice	0.0	preferred_right	98.0	85.0		22.843554299965035	0.03339399996912107
0	18.9119486999698	stim	80		2	unambiguous_practice	left_practice	0.0	preferred_right	98.0	85.0		22.876948299934156	0.03390969999600202
0	18.9458583999658	stim	81		2	unambiguous_practice	left_practice	0.0	preferred_right	98.0	85.0		22.91085799993016	0.03313430002890527
0	18.978992699994706	stim	82		2	unambiguous_practice	left_practice	0.0	preferred_right	98.0	85.0		22.943992299959064	0.03353499999502674
0	19.012527699989732	stim	83		2	unambiguous_practice	left_practice	0.0	preferred_right	98.0	85.0		22.97752729995409	0.033185600012075156
0	19.045713300001808	stim	84		2	unambiguous_practice	left_practice	0.0	preferred_right	98.0	85.0		23.010712899966165	0.03382939996663481
0	19.079542699968442	stim	85		2	unambiguous_practice	left_practice	0.0	preferred_right	98.0	85.0		23.0445422999328	0.05030950001673773
0	19.12985219998518	stim	86		2	unambiguous_practice	left_practice	0.0	preferred_right	98.0	85.0		23.094851799949538	0.050381099979858845
0	19.18023329996504	stim	87		2	unambiguous_practice	left_practice	0.0	preferred_right	98.0	85.0		23.145232899929397	0.05027790000895038
0	19.23051119997399	stim	88		2	unambiguous_practice	left_practice	0.0	preferred_right	98.0	85.0		23.195510799938347	0.049664299993310124
0	19.2801754999673	stim	89		2	unambiguous_practice	left_practice	0.0	preferred_right	98.0	85.0		23.245175099931657	0.06701300002168864
0	19.347188499988988	stim	90		2	unambiguous_practice	left_practice	0.0	preferred_right	98.0	85.0		23.312188099953346	0.05003480002051219
0	19.3972233000095	stim	91		2	unambiguous_practice	left_practice	0.0	preferred_right	98.0	85.0		23.362222899973858	0.050357499974779785
0	19.44758079998428	stim	92		2	unambiguous_practice	left_practice	0.0	preferred_right	98.0	85.0		23.412580399948638	0.06701320002321154
0	19.51459400000749	stim	93		2	unambiguous_practice	left_practice	0.0	preferred_right	98.0	85.0		23.47959359997185	0.049907199980225414
0	19.564501199987717	stim	94		2	unambiguous_practice	left_practice	0.0	preferred_right	98.0	85.0		23.529500799952075	0.05049440002767369
0	19.61499560001539	stim	95		2	unambiguous_practice	left_practice	0.0	preferred_right	98.0	85.0		23.57999519997975	0.06525019998662174
0	19.680245800002012	stim	96		2	unambiguous_practice	left_practice	0.0	preferred_right	98.0	85.0		23.64524539996637	0.033453800017014146
0	19.713699600019027	stim	97		2	unambiguous_practice	left_practice	0.0	preferred_right	98.0	85.0		23.678699199983384	0.03357119997963309
0	19.74727079999866	stim	0		2	unambiguous_practice	left_practice	0.0	preferred_right	75.0	183.0		23.712270399963018	0.0334088999661617
0	19.78067969996482	stim	1		2	unambiguous_practice	left_practice	0.0	preferred_right	75.0	183.0		23.74567929992918	0.03361300000688061
0	19.814292699971702	stim	2		2	unambiguous_practice	left_practice	0.0	preferred_right	75.0	183.0		23.77929229993606	0.05000610003480688
0	19.86429880000651	stim	3		2	unambiguous_practice	left_practice	0.0	preferred_right	75.0	183.0		23.829298399970867	0.050464199972338974
0	19.914762999978848	stim	4		2	unambiguous_practice	left_practice	0.0	preferred_right	75.0	183.0		23.879762599943206	0.03340160002699122
0	19.94816460000584	stim	5		2	unambiguous_practice	left_practice	0.0	preferred_right	75.0	183.0		23.913164199970197	0.0333286999957636
0	19.981493300001603	stim	6		2	unambiguous_practice	left_practice	0.0	preferred_right	75.0	183.0		23.94649289996596	0.033991499978583306
0	20.015484799980186	stim	7		2	unambiguous_practice	left_practice	0.0	preferred_right	75.0	183.0		23.980484399944544	0.050081900029908866
0	20.065566700010095	stim	8		2	unambiguous_practice	left_practice	0.0	preferred_right	75.0	183.0		24.030566299974453	0.04951079998863861
0	20.115077499998733	stim	9		2	unambiguous_practice	left_practice	0.0	preferred_right	75.0	183.0		24.08007709996309	0.033763599989470094
0	20.148841099988203	stim	10		2	unambiguous_practice	left_practice	0.0	preferred_right	75.0	183.0		24.11384069995256	0.05019500001799315
0	20.199036100006197	stim	11		2	unambiguous_practice	left_practice	0.0	preferred_right	75.0	183.0		24.164035699970555	0.04944879998220131
0	20.248484899988398	stim	12		2	unambiguous_practice	left_practice	0.0	preferred_right	75.0	183.0		24.213484499952756	0.033628700010012835
0	20.28211359999841	stim	13		2	unambiguous_practice	left_practice	0.0	preferred_right	75.0	183.0		24.24711319996277	0.03334209998138249
0	20.315455699979793	stim	14		2	unambiguous_practice	left_practice	0.0	preferred_right	75.0	183.0		24.28045529994415	0.03328879998298362
0	20.348744499962777	stim	15		2	unambiguous_practice	left_practice	0.0	preferred_right	75.0	183.0		24.313744099927135	0.033380100037902594
0	20.38212460000068	stim	16		2	unambiguous_practice	left_practice	0.0	preferred_right	75.0	183.0		24.347124199965037	0.03433439997024834
0	20.416458999970928	stim	17		2	unambiguous_practice	left_practice	0.0	preferred_right	75.0	183.0		24.381458599935286	0.049726199998985976
0	20.466185199969914	stim	18		2	unambiguous_practice	left_practice	0.0	preferred_right	75.0	183.0		24.43118479993427	0.050431600015144795
0	20.51661679998506	stim	19		2	unambiguous_practice	left_practice	0.0	preferred_right	75.0	183.0		24.481616399949417	0.05014910001773387
0	20.566765900002792	stim	20		2	unambiguous_practice	left_practice	0.0	preferred_right	75.0	183.0		24.53176549996715	0.05178069998510182
0	20.618546599987894	stim	21		2	unambiguous_practice	left_practice	0.0	preferred_right	75.0	183.0		24.583546199952252	0.031162300030700862
0	20.649708900018595	stim	22		2	unambiguous_practice	left_practice	0.0	preferred_right	75.0	183.0		24.614708499982953	0.03639499994460493
0	20.6861038999632	stim	23		2	unambiguous_practice	left_practice	0.0	preferred_right	75.0	183.0		24.651103499927558	0.04764260002411902
0	20.73374649998732	stim	24		2	unambiguous_practice	left_practice	0.0	preferred_right	75.0	183.0		24.698746099951677	0.05292929999995977
0	20.78667579998728	stim	25		2	unambiguous_practice	left_practice	0.0	preferred_right	75.0	183.0		24.751675399951637	0.04750620003324002
0	20.83418200002052	stim	26		2	unambiguous_practice	left_practice	0.0	preferred_right	75.0	183.0		24.799181599984877	0.04973589995643124
0	20.88391789997695	stim	27		2	unambiguous_practice	left_practice	0.0	preferred_right	75.0	183.0		24.848917499941308	0.053065899992361665
0	20.936983799969312	stim	28		2	unambiguous_practice	left_practice	0.0	preferred_right	75.0	183.0		24.90198339993367	0.04996440000832081
0	20.986948199977633	stim	29		2	unambiguous_practice	left_practice	0.0	preferred_right	75.0	183.0		24.95194779994199	0.0476634000078775
0	21.03461159998551	stim	30		2	unambiguous_practice	left_practice	0.0	preferred_right	75.0	183.0		24.999611199949868	0.049736700020730495
0	21.08434830000624	stim	31		2	unambiguous_practice	left_practice	0.0	preferred_right	75.0	183.0		25.0493478999706	0.049902800004929304
0	21.13425110001117	stim	32		2	unambiguous_practice	left_practice	0.0	preferred_right	75.0	183.0		25.099250699975528	0.05016869999235496
0	21.184419800003525	stim	33		2	unambiguous_practice	left_practice	0.0	preferred_right	75.0	183.0		25.149419399967883	0.05051669996464625
0	21.23493649996817	stim	34		2	unambiguous_practice	left_practice	0.0	preferred_right	75.0	183.0		25.19993609993253	0.05221789999632165
0	21.287154399964493	stim	35		2	unambiguous_practice	left_practice	0.0	preferred_right	75.0	183.0		25.25215399992885	0.04990490002091974
0	21.337059299985413	stim	36		2	unambiguous_practice	left_practice	0.0	preferred_right	75.0	183.0		25.30205889994977	0.050508600019384176
0	21.387567900004797	stim	37		2	unambiguous_practice	left_practice	0.0	preferred_right	75.0	183.0		25.352567499969155	0.05000089999521151
0	21.437568800000008	stim	38		2	unambiguous_practice	left_practice	0.0	preferred_right	75.0	183.0		25.402568399964366	0.04981910000788048
0	21.48738790000789	stim	39		2	unambiguous_practice	left_practice	0.0	preferred_right	75.0	183.0		25.452387499972247	0.050019499962218106
0	21.537407399970107	stim	40		2	unambiguous_practice	left_practice	0.0	preferred_right	75.0	183.0		25.502406999934465	0.04735050001181662
0	21.584757899981923	stim	41		2	unambiguous_practice	left_practice	0.0	preferred_right	75.0	183.0		25.54975749994628	0.05163390003144741
0	21.63639180001337	stim	42		2	unambiguous_practice	left_practice	0.0	preferred_right	75.0	183.0		25.60139139997773	0.035529799992218614
0	21.67192160000559	stim	43		2	unambiguous_practice	left_practice	0.0	preferred_right	75.0	183.0		25.636921199969947	0.06700370000908151
0	21.73892530001467	stim	44		2	unambiguous_practice	left_practice	0.0	preferred_right	75.0	183.0		25.70392489997903	0.06440649996511638
0	21.803331799979787	stim	45		2	unambiguous_practice	left_practice	0.0	preferred_right	75.0	183.0		25.768331399944145	0.06656659999862313
0	21.86989839997841	stim	46		2	unambiguous_practice	left_practice	0.0	preferred_right	75.0	183.0		25.83489799994277	0.0692259999923408
0	21.93912439997075	stim	47		2	unambiguous_practice	left_practice	0.0	preferred_right	75.0	183.0		25.90412399993511	0.06728110002586618
0	22.006405499996617	stim	48		2	unambiguous_practice	left_practice	0.0	preferred_right	75.0	183.0		25.971405099960975	0.046317200001794845
0	22.052722699998412	stim	49		2	unambiguous_practice	left_practice	0.0	preferred_right	75.0	183.0		26.01772229996277	0.032507199968677014
0	22.08522989996709	stim	50		2	unambiguous_practice	left_practice	0.0	preferred_right	75.0	183.0		26.050229499931447	0.034415400004945695
0	22.119645299972035	stim	51		2	unambiguous_practice	left_practice	0.0	preferred_right	75.0	183.0		26.084644899936393	0.03312000003643334
0	22.15276530000847	stim	52		2	unambiguous_practice	left_practice	0.0	preferred_right	75.0	183.0		26.117764899972826	0.0335386999649927
0	22.18630399997346	stim	53		2	unambiguous_practice	left_practice	0.0	preferred_right	75.0	183.0		26.15130359993782	0.03279430000111461
0	22.219098299974576	stim	54		2	unambiguous_practice	left_practice	0.0	preferred_right	75.0	183.0		26.184097899938934	0.03347120003309101
0	22.252569500007667	stim	55		2	unambiguous_practice	left_practice	0.0	preferred_right	75.0	183.0		26.217569099972025	0.03336429997580126
0	22.285933799983468	stim	56		2	unambiguous_practice	left_practice	0.0	preferred_right	75.0	183.0		26.250933399947826	0.03341740003088489
0	22.319351200014353	stim	57		2	unambiguous_practice	left_practice	0.0	preferred_right	75.0	183.0		26.28435079997871	0.034133999957703054
0	22.353485199972056	stim	58		2	unambiguous_practice	left_practice	0.0	preferred_right	75.0	183.0		26.318484799936414	0.033425600035116076
0	22.386910800007172	stim	59		2	unambiguous_practice	left_practice	0.0	preferred_right	75.0	183.0		26.35191039997153	0.033462799969129264
0	22.4203735999763	stim	60		2	unambiguous_practice	left_practice	0.0	preferred_right	75.0	183.0		26.38537319994066	0.03317290003178641
0	22.453546500008088	stim	61		2	unambiguous_practice	left_practice	0.0	preferred_right	75.0	183.0		26.418546099972446	0.03336609998950735
0	22.486912599997595	stim	62		2	unambiguous_practice	left_practice	0.0	preferred_right	75.0	183.0		26.451912199961953	0.033486199972685426
0	22.52039879997028	stim	63		2	unambiguous_practice	left_practice	0.0	preferred_right	75.0	183.0		26.48539839993464	0.03348919999552891
0	22.55388799996581	stim	64		2	unambiguous_practice	left_practice	0.0	preferred_right	75.0	183.0		26.518887599930167	0.033535399998072535
0	22.587423399963882	stim	65		2	unambiguous_practice	left_practice	0.0	preferred_right	75.0	183.0		26.55242299992824	0.033185600012075156
0	22.620608999975957	stim	66		2	unambiguous_practice	left_practice	0.0	preferred_right	75.0	183.0		26.585608599940315	0.033846700040157884
0	22.654455700016115	stim	67		2	unambiguous_practice	left_practice	0.0	preferred_right	75.0	183.0		26.619455299980473	0.03338949999306351
0	22.68784520000918	stim	68		2	unambiguous_practice	left_practice	0.0	preferred_right	75.0	183.0		26.652844799973536	0.033410799980629236
0	22.721255999989808	stim	69		2	unambiguous_practice	left_practice	0.0	preferred_right	75.0	183.0		26.686255599954166	0.033456899982411414
0	22.75471289997222	stim	70		2	unambiguous_practice	left_practice	0.0	preferred_right	75.0	183.0		26.719712499936577	0.03335660003358498
0	22.788069500005804	stim	71		2	unambiguous_practice	left_practice	0.0	preferred_right	75.0	183.0		26.753069099970162	0.03325420001056045
0	22.821323700016364	stim	72		2	unambiguous_practice	left_practice	0.0	preferred_right	75.0	183.0		26.786323299980722	0.033327799988910556
0	22.854651500005275	stim	73		2	unambiguous_practice	left_practice	0.0	preferred_right	75.0	183.0		26.819651099969633	0.03408169996691868
0	22.888733199972194	stim	74		2	unambiguous_practice	left_practice	0.0	preferred_right	75.0	183.0		26.85373279993655	0.03339080000296235
0	22.922123999975156	stim	0		2	unambiguous_practice	left_practice	0.0	preferred_right	41.0	68.0		26.887123599939514	0.033840499992948025
0	22.955964499968104	stim	1		2	unambiguous_practice	left_practice	0.0	preferred_right	41.0	68.0		26.920964099932462	0.03345430002082139
0	22.989418799988925	stim	2		2	unambiguous_practice	left_practice	0.0	preferred_right	41.0	68.0		26.954418399953283	0.033502699981909245
0	23.022921499970835	stim	3		2	unambiguous_practice	left_practice	0.0	preferred_right	41.0	68.0		26.987921099935193	0.0332054000464268
0	23.05612690001726	stim	4		2	unambiguous_practice	left_practice	0.0	preferred_right	41.0	68.0		27.02112649998162	0.03384869999717921
0	23.08997560001444	stim	5		2	unambiguous_practice	left_practice	0.0	preferred_right	41.0	68.0		27.0549751999788	0.03332449996378273
0	23.123300099978223	stim	6		2	unambiguous_practice	left_practice	0.0	preferred_right	41.0	68.0		27.08829969994258	0.0334965999936685
0	23.156796699971892	stim	7		2	unambiguous_practice	left_practice	0.0	preferred_right	41.0	68.0		27.12179629993625	0.033401900029275566
0	23.190198600001168	stim	8		2	unambiguous_practice	left_practice	0.0	preferred_right	41.0	68.0		27.155198199965525	0.03297150001162663
0	23.223170100012794	stim	9		2	unambiguous_practice	left_practice	0.0	preferred_right	41.0	68.0		27.188169699977152	0.033292299951426685
0	23.25646239996422	stim	10		2	unambiguous_practice	left_practice	0.0	preferred_right	41.0	68.0		27.22146199992858	0.03349950001575053
0	23.28996189997997	stim	11		2	unambiguous_practice	left_practice	0.0	preferred_right	41.0	68.0		27.25496149994433	0.033560400013811886
0	23.323522299993783	stim	12		2	unambiguous_practice	left_practice	0.0	preferred_right	41.0	68.0		27.28852189995814	0.03313419996993616
0	23.35665649996372	stim	13		2	unambiguous_practice	left_practice	0.0	preferred_right	41.0	68.0		27.321656099928077	0.03367240005172789
0	23.390328900015447	stim	14		2	unambiguous_practice	left_practice	0.0	preferred_right	41.0	68.0		27.355328499979805	0.03385349997552112
0	23.42418239999097	stim	15		2	unambiguous_practice	left_practice	0.0	preferred_right	41.0	68.0		27.389181999955326	0.03327509999508038
0	23.45745749998605	stim	16		2	unambiguous_practice	left_practice	0.0	preferred_right	41.0	68.0		27.422457099950407	0.03358960000332445
0	23.491047099989373	stim	17		2	unambiguous_practice	left_practice	0.0	preferred_right	41.0	68.0		27.45604669995373	0.03282899997429922
0	23.523876099963672	stim	18		2	unambiguous_practice	left_practice	0.0	preferred_right	41.0	68.0		27.48887569992803	0.03427990002091974
0	23.558155999984592	stim	19		2	unambiguous_practice	left_practice	0.0	preferred_right	41.0	68.0		27.52315559994895	0.03331500000786036
0	23.591470999992453	stim	20		2	unambiguous_practice	left_practice	0.0	preferred_right	41.0	68.0		27.55647059995681	0.03337770001962781
0	23.62484870001208	stim	21		2	unambiguous_practice	left_practice	0.0	preferred_right	41.0	68.0		27.58984829997644	0.03362459997879341
0	23.658473299990874	stim	22		2	unambiguous_practice	left_practice	0.0	preferred_right	41.0	68.0		27.62347289995523	0.033358899992890656
0	23.691832199983764	stim	23		2	unambiguous_practice	left_practice	0.0	preferred_right	41.0	68.0		27.656831799948122	0.03368540003430098
0	23.725517600018065	stim	24		2	unambiguous_practice	left_practice	0.0	preferred_right	41.0	68.0		27.690517199982423	0.033146899950224906
0	23.75866449996829	stim	25		2	unambiguous_practice	left_practice	0.0	preferred_right	41.0	68.0		27.72366409993265	0.033907400036696345
0	23.792571900004987	stim	26		2	unambiguous_practice	left_practice	0.0	preferred_right	41.0	68.0		27.757571499969345	0.03408720000879839
0	23.826659100013785	stim	27		2	unambiguous_practice	left_practice	0.0	preferred_right	41.0	68.0		27.791658699978143	0.03325469995616004
0	23.859913799969945	stim	28		2	unambiguous_practice	left_practice	0.0	preferred_right	41.0	68.0		27.824913399934303	0.03323400003137067
0	23.893147800001316	stim	29		2	unambiguous_practice	left_practice	0.0	preferred_right	41.0	68.0		27.858147399965674	0.03354659996693954
0	23.926694399968255	stim	30		2	unambiguous_practice	left_practice	0.0	preferred_right	41.0	68.0		27.891693999932613	0.03363850002642721
0	23.960332899994683	stim	31		2	unambiguous_practice	left_practice	0.0	preferred_right	41.0	68.0		27.92533249995904	0.033397599996533245
0	23.993730499991216	stim	32		2	unambiguous_practice	left_practice	0.0	preferred_right	41.0	68.0		27.958730099955574	0.032952899986412376
0	24.026683399977628	stim	33		2	unambiguous_practice	left_practice	0.0	preferred_right	41.0	68.0		27.991682999941986	0.03405170002952218
0	24.06073510000715	stim	34		2	unambiguous_practice	left_practice	0.0	preferred_right	41.0	68.0		28.02573469997151	0.034156000008806586
0	24.094891100015957	stim	35		2	unambiguous_practice	left_practice	0.0	preferred_right	41.0	68.0		28.059890699980315	0.033563299977686256
0	24.128454399993643	stim	36		2	unambiguous_practice	left_practice	0.0	preferred_right	41.0	68.0		28.093453999958	0.03326499997638166
0	24.161719399970025	stim	37		2	unambiguous_practice	left_practice	0.0	preferred_right	41.0	68.0		28.126718999934383	0.033954900049138814
0	24.195674300019164	stim	38		2	unambiguous_practice	left_practice	0.0	preferred_right	41.0	68.0		28.16067389998352	0.04943979997187853
0	24.245114099991042	stim	39		2	unambiguous_practice	left_practice	0.0	preferred_right	41.0	68.0		28.2101136999554	0.049947099993005395
0	24.295061199984048	stim	40		2	unambiguous_practice	left_practice	0.0	preferred_right	41.0	68.0		28.260060799948405	2.6833525000256486
0	26.978413700009696	stim	0		0	break	break	0.0	preferred_right	1.0	0.0		30.943413299974054	0.10016089997952804
