trial_nr	onset	event_type	phase	response	nr_frames	block_type	trial_type	response_hand	phase_length	last_frame	key_duration	onset_abs	duration
0	0.007330299937166274	stim	0		0	break	break	preferred	1.0	0.0		4.980682399938814	3.595580500084907
0	3.602910800022073	break	0	space	0	break	break	preferred	1.0	0.0	0.06336489995010197	8.576262900023721	0.2208468000171706
0	3.8237576000392437	break	0	space	599	break	break	preferred	1.0	0.0	0.06417129992041737	8.797109700040892	6.227580399950966
1	10.05133799999021	stim	0		2	unambiguous	right	preferred	69.0	0.0		15.024690099991858	0.03326349996495992
1	10.08460149995517	stim	1		2	unambiguous	right	preferred	69.0	0.0		15.057953599956818	0.03314610000234097
1	10.11774759995751	stim	2		2	unambiguous	right	preferred	69.0	0.0		15.091099699959159	0.033355899970047176
1	10.151103499927558	stim	3		2	unambiguous	right	preferred	69.0	0.0		15.124455599929206	0.03334640001412481
1	10.184449899941683	stim	4		2	unambiguous	right	preferred	69.0	0.0		15.15780199994333	0.033452200004830956
1	10.217902099946514	stim	5		2	unambiguous	right	preferred	69.0	0.0		15.191254199948162	0.03358030004892498
1	10.251482399995439	stim	6		2	unambiguous	right	preferred	69.0	0.0		15.224834499997087	0.033419999992474914
1	10.284902399987914	stim	7		2	unambiguous	right	preferred	69.0	0.0		15.258254499989562	0.033130800002254546
1	10.318033199990168	stim	8		2	unambiguous	right	preferred	69.0	0.0		15.291385299991816	0.033016699948348105
1	10.351049899938516	stim	9		2	unambiguous	right	preferred	69.0	0.0		15.324401999940164	0.03216289996635169
1	10.383212799904868	stim	10		2	unambiguous	right	preferred	69.0	0.0		15.356564899906516	0.034672999987378716
1	10.417885799892247	stim	11		2	unambiguous	right	preferred	69.0	0.0		15.391237899893895	0.03319010010454804
1	10.451075899996795	stim	12		2	unambiguous	right	preferred	69.0	0.0		15.424427999998443	0.03383539989590645
1	10.484911299892701	stim	13		2	unambiguous	right	preferred	69.0	0.0		15.45826339989435	0.032920700032263994
1	10.517831999924965	stim	14		2	unambiguous	right	preferred	69.0	0.0		15.491184099926613	0.034857099992223084
1	10.552689099917188	stim	15		2	unambiguous	right	preferred	69.0	0.0		15.526041199918836	0.03171350003685802
1	10.584402599954046	stim	16		2	unambiguous	right	preferred	69.0	0.0		15.557754699955694	0.03337319998536259
1	10.617775799939409	stim	17		2	unambiguous	right	preferred	69.0	0.0		15.591127899941057	0.033296999987214804
1	10.651072799926624	stim	18		2	unambiguous	right	preferred	69.0	0.0		15.624424899928272	0.03368330001831055
1	10.684756099944934	stim	19		2	unambiguous	right	preferred	69.0	0.0		15.658108199946582	0.03319380001630634
1	10.71794989996124	stim	20		2	unambiguous	right	preferred	69.0	0.0		15.691301999962889	0.03374350001104176
1	10.751693399972282	stim	21		2	unambiguous	right	preferred	69.0	0.0		15.72504549997393	0.032791499979794025
1	10.784484899952076	stim	22		2	unambiguous	right	preferred	69.0	0.0		15.757836999953724	0.03321869997307658
1	10.817703599925153	stim	23		2	unambiguous	right	preferred	69.0	0.0		15.791055699926801	0.03341869998257607
1	10.851122299907729	stim	24		2	unambiguous	right	preferred	69.0	0.0		15.824474399909377	0.03335600008722395
1	10.884478299994953	stim	25		2	unambiguous	right	preferred	69.0	0.0		15.857830399996601	0.03366209997329861
1	10.918140399968252	stim	26		2	unambiguous	right	preferred	69.0	0.0		15.8914924999699	0.034764999989420176
1	10.952905399957672	stim	27		2	unambiguous	right	preferred	69.0	0.0		15.92625749995932	0.0315532999811694
1	10.984458699938841	stim	28		2	unambiguous	right	preferred	69.0	0.0		15.95781079994049	0.03324540005996823
1	11.01770409999881	stim	29		2	unambiguous	right	preferred	69.0	0.0		15.991056200000457	0.033348499913699925
1	11.05105259991251	stim	30		2	unambiguous	right	preferred	69.0	0.0		16.024404699914157	0.03322310000658035
1	11.08427569991909	stim	31		2	unambiguous	right	preferred	69.0	0.0		16.057627799920738	0.03382030001375824
1	11.118095999932848	stim	32		2	unambiguous	right	preferred	69.0	0.0		16.091448099934496	0.03308900003321469
1	11.151184999966063	stim	33		2	unambiguous	right	preferred	69.0	0.0		16.12453709996771	0.035039199981838465
1	11.186224199947901	stim	34		2	unambiguous	right	preferred	69.0	0.0		16.15957629994955	0.03140440001152456
1	11.217628599959426	stim	35		2	unambiguous	right	preferred	69.0	0.0		16.190980699961074	0.03225119994021952
1	11.249879799899645	stim	36		2	unambiguous	right	preferred	69.0	0.0		16.223231899901293	0.03456410008948296
1	11.284443899989128	stim	37		2	unambiguous	right	preferred	69.0	0.0		16.257795999990776	0.03237289993558079
1	11.316816799924709	stim	38		2	unambiguous	right	preferred	69.0	0.0		16.290168899926357	0.03463060001377016
1	11.351447399938479	stim	39		2	unambiguous	right	preferred	69.0	0.0		16.324799499940127	0.033104400034062564
1	11.384551799972542	stim	40		2	unambiguous	right	preferred	69.0	0.0		16.35790389997419	0.03329279995523393
1	11.417844599927776	stim	41		2	unambiguous	right	preferred	69.0	0.0		16.391196699929424	0.03344140003900975
1	11.451285999966785	stim	42		2	unambiguous	right	preferred	69.0	0.0		16.424638099968433	0.033015099936164916
1	11.48430109990295	stim	43		2	unambiguous	right	preferred	69.0	0.0		16.4576531999046	0.033375400002114475
1	11.517676499905065	stim	44		2	unambiguous	right	preferred	69.0	0.0		16.491028599906713	0.03230610000900924
1	11.549982599914074	stim	45		2	unambiguous	right	preferred	69.0	0.0		16.523334699915722	0.03467680001631379
1	11.584659399930388	stim	46		2	unambiguous	right	preferred	69.0	0.0		16.558011499932036	0.03473139996640384
1	11.619390799896792	stim	47		2	unambiguous	right	preferred	69.0	0.0		16.59274289989844	0.031718900077976286
1	11.651109699974768	stim	48		2	unambiguous	right	preferred	69.0	0.0		16.624461799976416	0.03325300000142306
1	11.684362699976191	stim	49		2	unambiguous	right	preferred	69.0	0.0		16.65771479997784	0.03333289991132915
1	11.71769559988752	stim	50		2	unambiguous	right	preferred	69.0	0.0		16.691047699889168	0.033454000018537045
1	11.751149599906057	stim	51		2	unambiguous	right	preferred	69.0	0.0		16.724501699907705	0.03346519998740405
1	11.784614799893461	stim	52		2	unambiguous	right	preferred	69.0	0.0		16.75796689989511	0.03334670001640916
1	11.81796149990987	stim	53		2	unambiguous	right	preferred	69.0	0.0		16.79131359991152	0.03313360002357513
1	11.851095099933445	stim	54		2	unambiguous	right	preferred	69.0	0.0		16.824447199935094	0.03319340001326054
1	11.884288499946706	stim	55		2	unambiguous	right	preferred	69.0	0.0		16.857640599948354	0.0333595999982208
1	11.917648099944927	stim	56		2	unambiguous	right	preferred	69.0	0.0		16.891000199946575	0.03325770003721118
1	11.950905799982138	stim	57		2	unambiguous	right	preferred	69.0	0.0		16.924257899983786	0.03279849991668016
1	11.983704299898818	stim	58		2	unambiguous	right	preferred	69.0	0.0		16.957056399900466	0.03417480003554374
1	12.017879099934362	stim	59		2	unambiguous	right	preferred	69.0	0.0		16.99123119993601	0.03489030001219362
1	12.052769399946555	stim	60		2	unambiguous	right	preferred	69.0	0.0		17.026121499948204	0.03159999998752028
1	12.084369399934076	stim	61		2	unambiguous	right	preferred	69.0	0.0		17.057721499935724	0.033403699984773993
1	12.11777309991885	stim	62		2	unambiguous	right	preferred	69.0	0.0		17.091125199920498	0.033526399987749755
1	12.1512994999066	stim	63		2	unambiguous	right	preferred	69.0	0.0		17.124651599908248	0.03318700008094311
1	12.184486499987543	stim	64		2	unambiguous	right	preferred	69.0	0.0		17.15783859998919	0.03350749996025115
1	12.217993999947794	stim	65		2	unambiguous	right	preferred	69.0	0.0		17.191346099949442	0.033292399952188134
1	12.251286399899982	stim	66		2	unambiguous	right	preferred	69.0	0.0		17.22463849990163	0.03308439999818802
1	12.28437079989817	stim	67		2	unambiguous	right	preferred	69.0	0.0		17.257722899899818	0.0332427000394091
1	12.317613499937579	stim	68		2	unambiguous	right	preferred	69.0	0.0		17.290965599939227	0.03336999996099621
2	12.350983499898575	stim	0		2	unambiguous	left	preferred	68.0	69.0		17.324335599900223	0.033396100043319166
2	12.384379599941894	stim	1		2	unambiguous	left	preferred	68.0	69.0		17.357731699943542	0.033985899994149804
2	12.418365499936044	stim	2		2	unambiguous	left	preferred	68.0	69.0		17.391717599937692	0.03280599997378886
2	12.451171499909833	stim	3		2	unambiguous	left	preferred	68.0	69.0		17.42452359991148	0.034843500005081296
2	12.486014999914914	stim	4		2	unambiguous	left	preferred	68.0	69.0		17.459367099916562	0.031651000026613474
2	12.517665999941528	stim	5		2	unambiguous	left	preferred	68.0	69.0		17.491018099943176	0.033301200019195676
2	12.550967199960724	stim	6		2	unambiguous	left	preferred	68.0	69.0		17.52431929996237	0.03344729996751994
2	12.584414499928243	stim	7		2	unambiguous	left	preferred	68.0	69.0		17.55776659992989	0.033830199972726405
2	12.61824469990097	stim	8		2	unambiguous	left	preferred	68.0	69.0		17.591596799902618	0.03310520004015416
2	12.651349899941124	stim	9		2	unambiguous	left	preferred	68.0	69.0		17.624701999942772	0.03458179999142885
2	12.685931699932553	stim	10		2	unambiguous	left	preferred	68.0	69.0		17.6592837999342	0.0318264999659732
2	12.717758199898526	stim	11		2	unambiguous	left	preferred	68.0	69.0		17.691110299900174	0.03336280002258718
2	12.751120999921113	stim	12		2	unambiguous	left	preferred	68.0	69.0		17.72447309992276	0.03337109996937215
2	12.784492099890485	stim	13		2	unambiguous	left	preferred	68.0	69.0		17.757844199892133	0.03386930003762245
2	12.818361399928108	stim	14		2	unambiguous	left	preferred	68.0	69.0		17.791713499929756	0.03371970006264746
2	12.852081099990755	stim	15		2	unambiguous	left	preferred	68.0	69.0		17.825433199992403	0.032972399960272014
2	12.885053499951027	stim	16		2	unambiguous	left	preferred	68.0	69.0		17.858405599952675	0.03336010000202805
2	12.918413599953055	stim	17		2	unambiguous	left	preferred	68.0	69.0		17.891765699954703	0.03331089997664094
2	12.951724499929696	stim	18		2	unambiguous	left	preferred	68.0	69.0		17.925076599931344	0.03360850003082305
2	12.98533299996052	stim	19		2	unambiguous	left	preferred	68.0	69.0		17.958685099962167	0.03364859998691827
2	13.018981599947438	stim	20		2	unambiguous	left	preferred	68.0	69.0		17.992333699949086	0.03354370000306517
2	13.052525299950503	stim	21		2	unambiguous	left	preferred	68.0	69.0		18.02587739995215	0.032898099976591766
2	13.085423399927095	stim	22		2	unambiguous	left	preferred	68.0	69.0		18.058775499928743	0.033904400072060525
2	13.119327799999155	stim	23		2	unambiguous	left	preferred	68.0	69.0		18.092679900000803	0.03299919993150979
2	13.152326999930665	stim	24		2	unambiguous	left	preferred	68.0	69.0		18.125679099932313	0.03334980004001409
2	13.185676799970679	stim	25		2	unambiguous	left	preferred	68.0	69.0		18.159028899972327	0.03337319998536259
2	13.219049999956042	stim	26		2	unambiguous	left	preferred	68.0	69.0		18.19240209995769	0.03419869998469949
2	13.253248699940741	stim	27		2	unambiguous	left	preferred	68.0	69.0		18.22660079994239	0.03307819995097816
2	13.28632689989172	stim	28		2	unambiguous	left	preferred	68.0	69.0		18.259678999893367	0.0333362000528723
2	13.319663099944592	stim	29		2	unambiguous	left	preferred	68.0	69.0		18.29301519994624	0.03329920000396669
2	13.352962299948558	stim	30		2	unambiguous	left	preferred	68.0	69.0		18.326314399950206	0.0336517000105232
2	13.386613999959081	stim	31		2	unambiguous	left	preferred	68.0	69.0		18.35996609996073	0.033582499949261546
2	13.420196499908343	stim	32		2	unambiguous	left	preferred	68.0	69.0		18.39354859990999	0.03403229999821633
2	13.45422879990656	stim	33		2	unambiguous	left	preferred	68.0	69.0		18.427580899908207	0.03266810008790344
2	13.486896899994463	stim	34		2	unambiguous	left	preferred	68.0	69.0		18.46024899999611	0.033278999966569245
2	13.520175899961032	stim	35		2	unambiguous	left	preferred	68.0	69.0		18.49352799996268	0.03357510000932962
2	13.553750999970362	stim	36		2	unambiguous	left	preferred	68.0	69.0		18.52710309997201	0.033339799963869154
2	13.58709079993423	stim	37		2	unambiguous	left	preferred	68.0	69.0		18.56044289993588	0.03360299998894334
2	13.620693799923174	stim	38		2	unambiguous	left	preferred	68.0	69.0		18.594045899924822	0.03391800005920231
2	13.654611799982376	stim	39		2	unambiguous	left	preferred	68.0	69.0		18.627963899984024	0.03297639999072999
2	13.687588199973106	stim	40		2	unambiguous	left	preferred	68.0	69.0		18.660940299974754	0.033298299997113645
2	13.72088649997022	stim	41		2	unambiguous	left	preferred	68.0	69.0		18.694238599971868	0.0333211999386549
2	13.754207699908875	stim	42		2	unambiguous	left	preferred	68.0	69.0		18.727559799910523	0.033322300063446164
2	13.787529999972321	stim	43		2	unambiguous	left	preferred	68.0	69.0		18.76088209997397	0.033317500026896596
2	13.820847499999218	stim	44		2	unambiguous	left	preferred	68.0	69.0		18.794199600000866	0.03373909997753799
2	13.854586599976756	stim	45		2	unambiguous	left	preferred	68.0	69.0		18.827938699978404	0.0330365999834612
2	13.887623199960217	stim	46		2	unambiguous	left	preferred	68.0	69.0		18.860975299961865	0.03332729998510331
2	13.92095049994532	stim	47		2	unambiguous	left	preferred	68.0	69.0		18.89430259994697	0.033585899975150824
2	13.954536399920471	stim	48		2	unambiguous	left	preferred	68.0	69.0		18.92788849992212	0.033299700007773936
2	13.987836099928245	stim	49		2	unambiguous	left	preferred	68.0	69.0		18.961188199929893	0.033550300053320825
2	14.021386399981566	stim	50		2	unambiguous	left	preferred	68.0	69.0		18.994738499983214	0.033697100006975234
2	14.055083499988541	stim	51		2	unambiguous	left	preferred	68.0	69.0		19.02843559999019	0.03333859995473176
2	14.088422099943273	stim	52		2	unambiguous	left	preferred	68.0	69.0		19.06177419994492	0.03335679997690022
2	14.121778899920173	stim	53		2	unambiguous	left	preferred	68.0	69.0		19.09513099992182	0.03344030003063381
2	14.155219199950807	stim	54		2	unambiguous	left	preferred	68.0	69.0		19.128571299952455	0.033249299973249435
2	14.188468499924056	stim	55		2	unambiguous	left	preferred	68.0	69.0		19.161820599925704	0.033335300046019256
2	14.221803799970075	stim	56		2	unambiguous	left	preferred	68.0	69.0		19.195155899971724	0.034167899983003736
2	14.25597169995308	stim	57		2	unambiguous	left	preferred	68.0	69.0		19.229323799954727	0.033810599939897656
2	14.289782299892977	stim	58		2	unambiguous	left	preferred	68.0	69.0		19.263134399894625	0.03315960010513663
2	14.322941899998114	stim	59		2	unambiguous	left	preferred	68.0	69.0		19.29629399999976	0.03330279991496354
2	14.356244699913077	stim	60		2	unambiguous	left	preferred	68.0	69.0		19.329596799914725	0.03327999997418374
2	14.38952469988726	stim	61		2	unambiguous	left	preferred	68.0	69.0		19.36287679988891	0.03332560008857399
2	14.422850299975835	stim	62		2	unambiguous	left	preferred	68.0	69.0		19.396202399977483	0.033889399957843125
2	14.456739699933678	stim	63		2	unambiguous	left	preferred	68.0	69.0		19.430091799935326	0.05026349995750934
2	14.507003199891187	stim	64		2	unambiguous	left	preferred	68.0	69.0		19.480355299892835	0.0331811000360176
2	14.540184299927205	stim	65		2	unambiguous	left	preferred	68.0	69.0		19.513536399928853	0.03332749998662621
2	14.573511799913831	stim	66		2	unambiguous	left	preferred	68.0	69.0		19.54686389991548	0.03331950004212558
2	14.606831299955957	stim	67		2	unambiguous	left	preferred	68.0	69.0		19.580183399957605	0.033279199968092144
3	14.640110499924049	stim	0		2	unambiguous	right	preferred	67.0	137.0		19.613462599925697	0.03374490002170205
3	14.67385539994575	stim	1		2	unambiguous	right	preferred	67.0	137.0		19.6472074999474	0.03501280001364648
3	14.708868199959397	stim	2		2	unambiguous	right	preferred	67.0	137.0		19.682220299961045	0.03180889994837344
3	14.74067709990777	stim	3		2	unambiguous	right	preferred	67.0	137.0		19.71402919990942	0.0331919000018388
3	14.77386899990961	stim	4		2	unambiguous	right	preferred	67.0	137.0		19.747221099911258	0.03328930004499853
3	14.807158299954608	stim	5		2	unambiguous	right	preferred	67.0	137.0		19.780510399956256	0.033319000038318336
3	14.840477299992926	stim	6		2	unambiguous	right	preferred	67.0	137.0		19.813829399994574	0.033548699924722314
3	14.874025999917649	stim	7		2	unambiguous	right	preferred	67.0	137.0		19.847378099919297	0.03451120003592223
3	14.908537199953571	stim	8		2	unambiguous	right	preferred	67.0	137.0		19.88188929995522	0.03233930002897978
3	14.94087649998255	stim	9		2	unambiguous	right	preferred	67.0	137.0		19.9142285999842	0.03322199999820441
3	14.974098499980755	stim	10		2	unambiguous	right	preferred	67.0	137.0		19.947450599982403	0.03364839998539537
3	15.00774689996615	stim	11		2	unambiguous	right	preferred	67.0	137.0		19.9810989999678	0.0329434999730438
3	15.040690399939194	stim	12		2	unambiguous	right	preferred	67.0	137.0		20.014042499940842	0.03353290003724396
3	15.074223299976438	stim	13		2	unambiguous	right	preferred	67.0	137.0		20.047575399978086	0.0338429999537766
3	15.108066299930215	stim	14		2	unambiguous	right	preferred	67.0	137.0		20.081418399931863	0.032912899972870946
3	15.140979199903086	stim	15		2	unambiguous	right	preferred	67.0	137.0		20.114331299904734	0.03333440003916621
3	15.174313599942252	stim	16		2	unambiguous	right	preferred	67.0	137.0		20.1476656999439	0.03332990000490099
3	15.207643499947153	stim	17		2	unambiguous	right	preferred	67.0	137.0		20.1809955999488	0.03328460000921041
3	15.240928099956363	stim	18		2	unambiguous	right	preferred	67.0	137.0		20.21428019995801	0.03343069995753467
3	15.274358799913898	stim	19		2	unambiguous	right	preferred	67.0	137.0		20.247710899915546	0.033702900051139295
3	15.308061699965037	stim	20		2	unambiguous	right	preferred	67.0	137.0		20.281413799966685	0.033608200028538704
3	15.341669899993576	stim	21		2	unambiguous	right	preferred	67.0	137.0		20.315021999995224	0.032998999929986894
3	15.374668899923563	stim	22		2	unambiguous	right	preferred	67.0	137.0		20.34802099992521	0.03329619998112321
3	15.407965099904686	stim	23		2	unambiguous	right	preferred	67.0	137.0		20.381317199906334	0.03334750002250075
3	15.441312599927187	stim	24		2	unambiguous	right	preferred	67.0	137.0		20.414664699928835	0.03383650002069771
3	15.475149099947885	stim	25		2	unambiguous	right	preferred	67.0	137.0		20.448501199949533	0.04983260005246848
3	15.524981700000353	stim	26		2	unambiguous	right	preferred	67.0	137.0		20.498333800002	0.033238599891774356
3	15.558220299892128	stim	27		2	unambiguous	right	preferred	67.0	137.0		20.531572399893776	0.033163400017656386
3	15.591383699909784	stim	28		2	unambiguous	right	preferred	67.0	137.0		20.564735799911432	0.03357500000856817
3	15.624958699918352	stim	29		2	unambiguous	right	preferred	67.0	137.0		20.59831079992	0.033268700004555285
3	15.658227399922907	stim	30		2	unambiguous	right	preferred	67.0	137.0		20.631579499924555	0.03323820000514388
3	15.691465599928051	stim	31		2	unambiguous	right	preferred	67.0	137.0		20.6648176999297	0.033442100044339895
3	15.724907699972391	stim	32		2	unambiguous	right	preferred	67.0	137.0		20.69825979997404	0.034022499923594296
3	15.758930199895985	stim	33		2	unambiguous	right	preferred	67.0	137.0		20.732282299897633	0.03262320009525865
3	15.791553399991244	stim	34		2	unambiguous	right	preferred	67.0	137.0		20.764905499992892	0.03333749994635582
3	15.8248908999376	stim	35		2	unambiguous	right	preferred	67.0	137.0		20.798242999939248	0.033440800034441054
3	15.858331699972041	stim	36		2	unambiguous	right	preferred	67.0	137.0		20.83168379997369	0.03327469993382692
3	15.891606399905868	stim	37		2	unambiguous	right	preferred	67.0	137.0		20.864958499907516	0.03331550001166761
3	15.924921899917535	stim	38		2	unambiguous	right	preferred	67.0	137.0		20.898273999919184	0.034037800040096045
3	15.958959699957632	stim	39		2	unambiguous	right	preferred	67.0	137.0		20.93231179995928	0.033145599998533726
3	15.992105299956165	stim	40		2	unambiguous	right	preferred	67.0	137.0		20.965457399957813	0.03369650000240654
3	16.025801799958572	stim	41		2	unambiguous	right	preferred	67.0	137.0		20.99915389996022	0.03315379994455725
3	16.05895559990313	stim	42		2	unambiguous	right	preferred	67.0	137.0		21.032307699904777	0.033307200064882636
3	16.09226279996801	stim	43		2	unambiguous	right	preferred	67.0	137.0		21.06561489996966	0.03326229995582253
3	16.125525099923834	stim	44		2	unambiguous	right	preferred	67.0	137.0		21.098877199925482	0.033631999976933
3	16.159157099900767	stim	45		2	unambiguous	right	preferred	67.0	137.0		21.132509199902415	0.03562239999882877
3	16.194779499899596	stim	46		2	unambiguous	right	preferred	67.0	137.0		21.168131599901244	0.03077300009317696
3	16.225552499992773	stim	47		2	unambiguous	right	preferred	67.0	137.0		21.19890459999442	0.03336719993967563
3	16.25891969993245	stim	48		2	unambiguous	right	preferred	67.0	137.0		21.232271799934097	0.03359360003378242
3	16.29251329996623	stim	49		2	unambiguous	right	preferred	67.0	137.0		21.26586539996788	0.03327319992240518
3	16.325786499888636	stim	50		2	unambiguous	right	preferred	67.0	137.0		21.299138599890284	0.03365650004707277
3	16.35944299993571	stim	51		2	unambiguous	right	preferred	67.0	137.0		21.332795099937357	0.03405709995422512
3	16.393500099889934	stim	52		2	unambiguous	right	preferred	67.0	137.0		21.366852199891582	0.032901300000958145
3	16.426401399890892	stim	53		2	unambiguous	right	preferred	67.0	137.0		21.39975349989254	0.03308030008338392
3	16.459481699974276	stim	54		2	unambiguous	right	preferred	67.0	137.0		21.432833799975924	0.0334220000077039
3	16.49290369998198	stim	55		2	unambiguous	right	preferred	67.0	137.0		21.466255799983628	0.03342379990499467
3	16.526327499886975	stim	56		2	unambiguous	right	preferred	67.0	137.0		21.499679599888623	0.033245100057683885
3	16.55957259994466	stim	57		2	unambiguous	right	preferred	67.0	137.0		21.532924699946307	0.03421750001143664
3	16.593790099956095	stim	58		2	unambiguous	right	preferred	67.0	137.0		21.567142199957743	0.03288419998716563
3	16.62667429994326	stim	59		2	unambiguous	right	preferred	67.0	137.0		21.60002639994491	0.03347959998063743
3	16.6601538999239	stim	60		2	unambiguous	right	preferred	67.0	137.0		21.633505999925546	0.033572499989531934
3	16.69372639991343	stim	61		2	unambiguous	right	preferred	67.0	137.0		21.66707849991508	0.03375399997457862
3	16.72748039988801	stim	62		2	unambiguous	right	preferred	67.0	137.0		21.700832499889657	0.033575300010852516
3	16.76105569989886	stim	63		2	unambiguous	right	preferred	67.0	137.0		21.73440779990051	0.0338767000939697
3	16.79493239999283	stim	64		2	unambiguous	right	preferred	67.0	137.0		21.76828449999448	0.033026899909600616
3	16.82795929990243	stim	65		2	unambiguous	right	preferred	67.0	137.0		21.80131139990408	0.033541199984028935
3	16.86150049988646	stim	66		2	unambiguous	right	preferred	67.0	137.0		21.83485259988811	0.03328880004119128
4	16.894789299927652	stim	0		2	unambiguous	left	preferred	68.0	14.0		21.8681413999293	0.033380000037141144
4	16.928169299964793	stim	1		2	unambiguous	left	preferred	68.0	14.0		21.90152139996644	0.03334950003772974
4	16.961518800002523	stim	2		2	unambiguous	left	preferred	68.0	14.0		21.93487090000417	0.03461919992696494
4	16.996137999929488	stim	3		2	unambiguous	left	preferred	68.0	14.0		21.969490099931136	0.03293580003082752
4	17.029073799960315	stim	4		2	unambiguous	left	preferred	68.0	14.0		22.002425899961963	0.03357989992946386
4	17.06265369988978	stim	5		2	unambiguous	left	preferred	68.0	14.0		22.036005799891427	0.03326540009584278
4	17.095919099985622	stim	6		2	unambiguous	left	preferred	68.0	14.0		22.06927119998727	0.033626999938860536
4	17.129546099924482	stim	7		2	unambiguous	left	preferred	68.0	14.0		22.10289819992613	0.0338387000374496
4	17.163384799961932	stim	8		2	unambiguous	left	preferred	68.0	14.0		22.13673689996358	0.032939799944870174
4	17.196324599906802	stim	9		2	unambiguous	left	preferred	68.0	14.0		22.16967669990845	0.03332839999347925
4	17.22965299990028	stim	10		2	unambiguous	left	preferred	68.0	14.0		22.20300509990193	0.03364250005688518
4	17.263295499957167	stim	11		2	unambiguous	left	preferred	68.0	14.0		22.236647599958815	0.033280599978752434
4	17.29657609993592	stim	12		2	unambiguous	left	preferred	68.0	14.0		22.269928199937567	0.033652600017376244
4	17.330228699953295	stim	13		2	unambiguous	left	preferred	68.0	14.0		22.303580799954943	0.03323960001580417
4	17.3634682999691	stim	14		2	unambiguous	left	preferred	68.0	14.0		22.336820399970748	0.03326309996191412
4	17.396731399931014	stim	15		2	unambiguous	left	preferred	68.0	14.0		22.37008349993266	0.037024299963377416
4	17.43375569989439	stim	16		2	unambiguous	left	preferred	68.0	14.0		22.40710779989604	0.029803700046613812
4	17.463559399941005	stim	17		2	unambiguous	left	preferred	68.0	14.0		22.436911499942653	0.033541199984028935
4	17.497100599925034	stim	18		2	unambiguous	left	preferred	68.0	14.0		22.470452699926682	0.03686820005532354
4	17.533968799980357	stim	19		2	unambiguous	left	preferred	68.0	14.0		22.507320899982005	0.030004899948835373
4	17.563973699929193	stim	20		2	unambiguous	left	preferred	68.0	14.0		22.53732579993084	0.03695019998122007
4	17.600923899910413	stim	21		2	unambiguous	left	preferred	68.0	14.0		22.57427599991206	0.035323900054208934
4	17.63624779996462	stim	22		2	unambiguous	left	preferred	68.0	14.0		22.60959989996627	0.031272999942302704
4	17.667520799906924	stim	23		2	unambiguous	left	preferred	68.0	14.0		22.640872899908572	0.033388499985449016
4	17.700909299892373	stim	24		2	unambiguous	left	preferred	68.0	14.0		22.67426139989402	0.03340010007377714
4	17.73430939996615	stim	25		2	unambiguous	left	preferred	68.0	14.0		22.7076614999678	0.03350180003326386
4	17.767811199999414	stim	26		2	unambiguous	left	preferred	68.0	14.0		22.741163300001062	0.03339549992233515
4	17.80120669992175	stim	27		2	unambiguous	left	preferred	68.0	14.0		22.774558799923398	0.03346519998740405
4	17.834671899909154	stim	28		2	unambiguous	left	preferred	68.0	14.0		22.8080239999108	0.03296610002871603
4	17.86763799993787	stim	29		2	unambiguous	left	preferred	68.0	14.0		22.840990099939518	0.033218299970030785
4	17.9008562999079	stim	30		2	unambiguous	left	preferred	68.0	14.0		22.87420839990955	0.03341190004721284
4	17.934268199955113	stim	31		2	unambiguous	left	preferred	68.0	14.0		22.90762029995676	0.033167899935506284
4	17.96743609989062	stim	32		2	unambiguous	left	preferred	68.0	14.0		22.940788199892268	0.033802200108766556
4	18.001238299999386	stim	33		2	unambiguous	left	preferred	68.0	14.0		22.974590400001034	0.03364699997473508
4	18.03488529997412	stim	34		2	unambiguous	left	preferred	68.0	14.0		23.00823739997577	0.034287999966181815
4	18.069173299940303	stim	35		2	unambiguous	left	preferred	68.0	14.0		23.04252539994195	0.03181099996436387
4	18.100984299904667	stim	36		2	unambiguous	left	preferred	68.0	14.0		23.074336399906315	0.03336760005913675
4	18.134351899963804	stim	37		2	unambiguous	left	preferred	68.0	14.0		23.10770399996545	0.04975819995161146
4	18.184110099915415	stim	38		2	unambiguous	left	preferred	68.0	14.0		23.157462199917063	0.032293800031766295
4	18.21640389994718	stim	39		2	unambiguous	left	preferred	68.0	14.0		23.18975599994883	0.034911699942313135
4	18.251315599889494	stim	40		2	unambiguous	left	preferred	68.0	14.0		23.224667699891143	0.03454940009396523
4	18.28586499998346	stim	41		2	unambiguous	left	preferred	68.0	14.0		23.259217099985108	0.03166290000081062
4	18.31752789998427	stim	42		2	unambiguous	left	preferred	68.0	14.0		23.29087999998592	0.033404899993911386
4	18.35093279997818	stim	43		2	unambiguous	left	preferred	68.0	14.0		23.32428489997983	0.03323649999219924
4	18.38416929997038	stim	44		2	unambiguous	left	preferred	68.0	14.0		23.35752139997203	0.03354899992700666
4	18.417718299897388	stim	45		2	unambiguous	left	preferred	68.0	14.0		23.391070399899036	0.03334990004077554
4	18.451068199938163	stim	46		2	unambiguous	left	preferred	68.0	14.0		23.42442029993981	0.033661199966445565
4	18.48472939990461	stim	47		2	unambiguous	left	preferred	68.0	14.0		23.458081499906257	0.0328654000768438
4	18.517594799981453	stim	48		2	unambiguous	left	preferred	68.0	14.0		23.4909468999831	0.033295499975793064
4	18.550890299957246	stim	49		2	unambiguous	left	preferred	68.0	14.0		23.524242399958894	0.03217130003031343
4	18.58306159998756	stim	50		2	unambiguous	left	preferred	68.0	14.0		23.556413699989207	0.03434309992007911
4	18.617404699907638	stim	51		2	unambiguous	left	preferred	68.0	14.0		23.590756799909286	0.03382100001908839
4	18.651225699926727	stim	52		2	unambiguous	left	preferred	68.0	14.0		23.624577799928375	0.03301370004191995
4	18.684239399968646	stim	53		2	unambiguous	left	preferred	68.0	14.0		23.657591499970295	0.03507390001323074
4	18.719313299981877	stim	54		2	unambiguous	left	preferred	68.0	14.0		23.692665399983525	0.031545399921014905
4	18.750858699902892	stim	55		2	unambiguous	left	preferred	68.0	14.0		23.72421079990454	0.033253700006753206
4	18.784112399909645	stim	56		2	unambiguous	left	preferred	68.0	14.0		23.757464499911293	0.03340770001523197
4	18.817520099924877	stim	57		2	unambiguous	left	preferred	68.0	14.0		23.790872199926525	0.033673100057058036
4	18.851193199981935	stim	58		2	unambiguous	left	preferred	68.0	14.0		23.824545299983583	0.03312099992763251
4	18.884314199909568	stim	59		2	unambiguous	left	preferred	68.0	14.0		23.857666299911216	0.034000599989667535
4	18.918314799899235	stim	60		2	unambiguous	left	preferred	68.0	14.0		23.891666899900883	0.0325924000935629
4	18.9509071999928	stim	61		2	unambiguous	left	preferred	68.0	14.0		23.924259299994446	0.03325929993297905
4	18.984166499925777	stim	62		2	unambiguous	left	preferred	68.0	14.0		23.957518599927425	0.033430500072427094
4	19.017596999998204	stim	63		2	unambiguous	left	preferred	68.0	14.0		23.990949099999852	0.03324099991004914
4	19.050837999908254	stim	64		2	unambiguous	left	preferred	68.0	14.0		24.0241900999099	0.033732800045982
4	19.084570799954236	stim	65		2	unambiguous	left	preferred	68.0	14.0		24.057922899955884	0.03307689994107932
4	19.117647699895315	stim	66		2	unambiguous	left	preferred	68.0	14.0		24.090999799896963	0.03453330008778721
4	19.152180999983102	stim	67		2	unambiguous	left	preferred	68.0	14.0		24.12553309998475	0.03199869999662042
5	19.184179699979722	stim	0		2	unambiguous	right	preferred	69.0	82.0		24.15753179998137	0.03331759991124272
5	19.217497299890965	stim	1		2	unambiguous	right	preferred	69.0	82.0		24.190849399892613	0.033231700072064996
5	19.25072899996303	stim	2		2	unambiguous	right	preferred	69.0	82.0		24.22408109996468	0.033741099992766976
5	19.284470099955797	stim	3		2	unambiguous	right	preferred	69.0	82.0		24.257822199957445	0.033624500036239624
5	19.318094599992037	stim	4		2	unambiguous	right	preferred	69.0	82.0		24.291446699993685	0.03325429989490658
5	19.351348899886943	stim	5		2	unambiguous	right	preferred	69.0	82.0		24.32470099988859	0.03299840004183352
5	19.384347299928777	stim	6		2	unambiguous	right	preferred	69.0	82.0		24.357699399930425	0.033391800010576844
5	19.417739099939354	stim	7		2	unambiguous	right	preferred	69.0	82.0		24.391091199941002	0.033396400045603514
5	19.451135499984957	stim	8		2	unambiguous	right	preferred	69.0	82.0		24.424487599986605	0.03362819994799793
5	19.484763699932955	stim	9		2	unambiguous	right	preferred	69.0	82.0		24.458115799934603	0.033673400059342384
5	19.518437099992298	stim	10		2	unambiguous	right	preferred	69.0	82.0		24.491789199993946	0.03321439994033426
5	19.551651499932632	stim	11		2	unambiguous	right	preferred	69.0	82.0		24.52500359993428	0.03331680002156645
5	19.5849682999542	stim	12		2	unambiguous	right	preferred	69.0	82.0		24.558320399955846	0.033321699942462146
5	19.61828999989666	stim	13		2	unambiguous	right	preferred	69.0	82.0		24.59164209989831	0.03361210005823523
5	19.651902099954896	stim	14		2	unambiguous	right	preferred	69.0	82.0		24.625254199956544	0.033428699942305684
5	19.6853307998972	stim	15		2	unambiguous	right	preferred	69.0	82.0		24.65868289989885	0.03428160003386438
5	19.719612399931066	stim	16		2	unambiguous	right	preferred	69.0	82.0		24.692964499932714	0.03259029996115714
5	19.752202699892223	stim	17		2	unambiguous	right	preferred	69.0	82.0		24.72555479989387	0.03378960001282394
5	19.785992299905047	stim	18		2	unambiguous	right	preferred	69.0	82.0		24.759344399906695	0.03276269999332726
5	19.818754999898374	stim	19		2	unambiguous	right	preferred	69.0	82.0		24.792107099900022	0.034064100007526577
5	19.8528190999059	stim	20		2	unambiguous	right	preferred	69.0	82.0		24.82617119990755	0.03352549998089671
5	19.886344599886797	stim	21		2	unambiguous	right	preferred	69.0	82.0		24.859696699888445	0.034181400085799396
5	19.920525999972597	stim	22		2	unambiguous	right	preferred	69.0	82.0		24.893878099974245	0.03287849994376302
5	19.95340449991636	stim	23		2	unambiguous	right	preferred	69.0	82.0		24.926756599918008	0.033250899985432625
5	19.986655399901792	stim	24		2	unambiguous	right	preferred	69.0	82.0		24.96000749990344	0.03329600009601563
5	20.019951399997808	stim	25		2	unambiguous	right	preferred	69.0	82.0		24.993303499999456	0.033321999944746494
5	20.053273399942555	stim	26		2	unambiguous	right	preferred	69.0	82.0		25.026625499944203	0.0333286999957636
5	20.086602099938318	stim	27		2	unambiguous	right	preferred	69.0	82.0		25.059954199939966	0.03385000000707805
5	20.120452099945396	stim	28		2	unambiguous	right	preferred	69.0	82.0		25.093804199947044	0.03302930004429072
5	20.153481399989687	stim	29		2	unambiguous	right	preferred	69.0	82.0		25.126833499991335	0.033315699896775186
5	20.186797099886462	stim	30		2	unambiguous	right	preferred	69.0	82.0		25.16014919988811	0.033286600024439394
5	20.2200836999109	stim	31		2	unambiguous	right	preferred	69.0	82.0		25.19343579991255	0.03331970004364848
5	20.25340339995455	stim	32		2	unambiguous	right	preferred	69.0	82.0		25.226755499956198	0.033348000026308
5	20.286751399980858	stim	33		2	unambiguous	right	preferred	69.0	82.0		25.260103499982506	0.03362749994266778
5	20.320378899923526	stim	34		2	unambiguous	right	preferred	69.0	82.0		25.293730999925174	0.03347350005060434
5	20.35385239997413	stim	35		2	unambiguous	right	preferred	69.0	82.0		25.327204499975778	0.033289099927060306
5	20.38714149990119	stim	36		2	unambiguous	right	preferred	69.0	82.0		25.36049359990284	0.04984600003808737
5	20.436987499939278	stim	37		2	unambiguous	right	preferred	69.0	82.0		25.410339599940926	0.03330520004965365
5	20.47029269998893	stim	38		2	unambiguous	right	preferred	69.0	82.0		25.44364479999058	0.03344259993173182
5	20.503735299920663	stim	39		2	unambiguous	right	preferred	69.0	82.0		25.47708739992231	0.033861499978229403
5	20.537596799898893	stim	40		2	unambiguous	right	preferred	69.0	82.0		25.51094889990054	0.033280600095167756
5	20.57087739999406	stim	41		2	unambiguous	right	preferred	69.0	82.0		25.54422949999571	0.03311839990783483
5	20.603995799901895	stim	42		2	unambiguous	right	preferred	69.0	82.0		25.577347899903543	0.03330080001614988
5	20.637296599918045	stim	43		2	unambiguous	right	preferred	69.0	82.0		25.610648699919693	0.03332539997063577
5	20.67062199988868	stim	44		2	unambiguous	right	preferred	69.0	82.0		25.64397409989033	0.033538400079123676
5	20.704160399967805	stim	45		2	unambiguous	right	preferred	69.0	82.0		25.677512499969453	0.03351670003030449
5	20.73767709999811	stim	46		2	unambiguous	right	preferred	69.0	82.0		25.711029199999757	0.033725899993442
5	20.77140299999155	stim	47		2	unambiguous	right	preferred	69.0	82.0		25.7447550999932	0.033407699898816645
5	20.804810699890368	stim	48		2	unambiguous	right	preferred	69.0	82.0		25.778162799892016	0.033243400044739246
5	20.838054099935107	stim	49		2	unambiguous	right	preferred	69.0	82.0		25.811406199936755	0.03329200006555766
5	20.871346100000665	stim	50		2	unambiguous	right	preferred	69.0	82.0		25.844698200002313	0.033327799988910556
5	20.904673899989575	stim	51		2	unambiguous	right	preferred	69.0	82.0		25.878025999991223	0.0336012999759987
5	20.938275199965574	stim	52		2	unambiguous	right	preferred	69.0	82.0		25.911627299967222	0.03436689998488873
5	20.972642099950463	stim	53		2	unambiguous	right	preferred	69.0	82.0		25.94599419995211	0.03234200004953891
5	21.0049841	stim	54		2	unambiguous	right	preferred	69.0	82.0		25.97833620000165	0.03331779991276562
5	21.038301899912767	stim	55		2	unambiguous	right	preferred	69.0	82.0		26.011653999914415	0.033637500018812716
5	21.07193939993158	stim	56		2	unambiguous	right	preferred	69.0	82.0		26.045291499933228	0.03388390003237873
5	21.10582329996396	stim	57		2	unambiguous	right	preferred	69.0	82.0		26.079175399965607	0.033578200032934546
5	21.139401499996893	stim	58		2	unambiguous	right	preferred	69.0	82.0		26.11275359999854	0.03427740000188351
5	21.173678899998777	stim	59		2	unambiguous	right	preferred	69.0	82.0		26.147031000000425	0.03246969997417182
5	21.20614859997295	stim	60		2	unambiguous	right	preferred	69.0	82.0		26.179500699974597	0.03341629996430129
5	21.23956489993725	stim	61		2	unambiguous	right	preferred	69.0	82.0		26.212916999938898	0.03341010003350675
5	21.272974999970756	stim	62		2	unambiguous	right	preferred	69.0	82.0		26.246327099972405	0.03346669999882579
5	21.306441699969582	stim	63		2	unambiguous	right	preferred	69.0	82.0		26.27979379997123	0.03333609993569553
5	21.339777799905278	stim	64		2	unambiguous	right	preferred	69.0	82.0		26.313129899906926	0.03384849999565631
5	21.373626299900934	stim	65		2	unambiguous	right	preferred	69.0	82.0		26.346978399902582	0.03290680004283786
5	21.406533099943772	stim	66		2	unambiguous	right	preferred	69.0	82.0		26.37988519994542	0.03333290002774447
5	21.439865999971516	stim	67		2	unambiguous	right	preferred	69.0	82.0		26.413218099973164	0.033506899955682456
5	21.4733728999272	stim	68		2	unambiguous	right	preferred	69.0	82.0		26.446724999928847	0.033280299976468086
6	21.506653199903667	stim	0		2	unambiguous	left	preferred	70.0	151.0		26.480005299905315	0.03334120009094477
6	21.53999439999461	stim	1		2	unambiguous	left	preferred	70.0	151.0		26.51334649999626	0.03411859995685518
6	21.574112999951467	stim	2		2	unambiguous	left	preferred	70.0	151.0		26.547465099953115	0.03303799999412149
6	21.60715099994559	stim	3		2	unambiguous	left	preferred	70.0	151.0		26.580503099947236	0.03343229996971786
6	21.640583299915306	stim	4		2	unambiguous	left	preferred	70.0	151.0		26.613935399916954	0.0334337999811396
6	21.674017099896446	stim	5		2	unambiguous	left	preferred	70.0	151.0		26.647369199898094	0.033704500063322484
6	21.70772159995977	stim	6		2	unambiguous	left	preferred	70.0	151.0		26.681073699961416	0.03394979995209724
6	21.741671399911866	stim	7		2	unambiguous	left	preferred	70.0	151.0		26.715023499913514	0.03347150003537536
6	21.77514289994724	stim	8		2	unambiguous	left	preferred	70.0	151.0		26.74849499994889	0.0332551000174135
6	21.808397999964654	stim	9		2	unambiguous	left	preferred	70.0	151.0		26.781750099966303	0.03330090001691133
6	21.841698899981566	stim	10		2	unambiguous	left	preferred	70.0	151.0		26.815050999983214	0.033572399988770485
6	21.875271299970336	stim	11		2	unambiguous	left	preferred	70.0	151.0		26.848623399971984	0.033422700013034046
6	21.90869399998337	stim	12		2	unambiguous	left	preferred	70.0	151.0		26.88204609998502	0.03336669993586838
6	21.94206069991924	stim	13		2	unambiguous	left	preferred	70.0	151.0		26.915412799920887	0.03373310004826635
6	21.975793799967505	stim	14		2	unambiguous	left	preferred	70.0	151.0		26.949145899969153	0.03332669998053461
6	22.00912049994804	stim	15		2	unambiguous	left	preferred	70.0	151.0		26.982472599949688	0.033336799941025674
6	22.042457299889065	stim	16		2	unambiguous	left	preferred	70.0	151.0		27.015809399890713	0.03383160009980202
6	22.076288899988867	stim	17		2	unambiguous	left	preferred	70.0	151.0		27.049640999990515	0.03328889992553741
6	22.109577799914405	stim	18		2	unambiguous	left	preferred	70.0	151.0		27.082929899916053	0.03328750003129244
6	22.142865299945697	stim	19		2	unambiguous	left	preferred	70.0	151.0		27.116217399947345	0.0335149000165984
6	22.176380199962296	stim	20		2	unambiguous	left	preferred	70.0	151.0		27.149732299963944	0.0339358999626711
6	22.210316099924967	stim	21		2	unambiguous	left	preferred	70.0	151.0		27.183668199926615	0.0330874000210315
6	22.243403499945998	stim	22		2	unambiguous	left	preferred	70.0	151.0		27.216755599947646	0.033336899941787124
6	22.276740399887785	stim	23		2	unambiguous	left	preferred	70.0	151.0		27.250092499889433	0.03333760006353259
6	22.310077999951318	stim	24		2	unambiguous	left	preferred	70.0	151.0		27.283430099952966	0.03334680001717061
6	22.34342479996849	stim	25		2	unambiguous	left	preferred	70.0	151.0		27.316776899970137	0.03375129995401949
6	22.377176099922508	stim	26		2	unambiguous	left	preferred	70.0	151.0		27.350528199924156	0.03396979998797178
6	22.41114589991048	stim	27		2	unambiguous	left	preferred	70.0	151.0		27.384497999912128	0.0329201000276953
6	22.444065999938175	stim	28		2	unambiguous	left	preferred	70.0	151.0		27.417418099939823	0.033298399997875094
6	22.47736439993605	stim	29		2	unambiguous	left	preferred	70.0	151.0		27.4507164999377	0.03334059996996075
6	22.51070499990601	stim	30		2	unambiguous	left	preferred	70.0	151.0		27.48405709990766	0.03332990000490099
6	22.544034899910912	stim	31		2	unambiguous	left	preferred	70.0	151.0		27.51738699991256	0.03366539999842644
6	22.57770029990934	stim	32		2	unambiguous	left	preferred	70.0	151.0		27.551052399910986	0.0348311000270769
6	22.612531399936415	stim	33		2	unambiguous	left	preferred	70.0	151.0		27.585883499938063	0.03267790004611015
6	22.645209299982525	stim	34		2	unambiguous	left	preferred	70.0	151.0		27.618561399984173	0.0334142999490723
6	22.678623599931598	stim	35		2	unambiguous	left	preferred	70.0	151.0		27.651975699933246	0.03341739997267723
6	22.712040999904275	stim	36		2	unambiguous	left	preferred	70.0	151.0		27.685393099905923	0.03346240008249879
6	22.745503399986774	stim	37		2	unambiguous	left	preferred	70.0	151.0		27.718855499988422	0.03327189991250634
6	22.77877529989928	stim	38		2	unambiguous	left	preferred	70.0	151.0		27.752127399900928	0.03433880000375211
6	22.813114099903032	stim	39		2	unambiguous	left	preferred	70.0	151.0		27.78646619990468	0.036561000044457614
6	22.84967509994749	stim	40		2	unambiguous	left	preferred	70.0	151.0		27.823027199949138	0.030481599969789386
6	22.88015669991728	stim	41		2	unambiguous	left	preferred	70.0	151.0		27.853508799918927	0.03338410006836057
6	22.91354079998564	stim	42		2	unambiguous	left	preferred	70.0	151.0		27.886892899987288	0.03372009994927794
6	22.947260899934918	stim	43		2	unambiguous	left	preferred	70.0	151.0		27.920612999936566	0.036690999986603856
6	22.98395189992152	stim	44		2	unambiguous	left	preferred	70.0	151.0		27.95730399992317	0.035288000013679266
6	23.0192398999352	stim	45		2	unambiguous	left	preferred	70.0	151.0		27.99259199993685	0.03156579995993525
6	23.050805699895136	stim	46		2	unambiguous	left	preferred	70.0	151.0		28.024157799896784	0.03317660000175238
6	23.08398229989689	stim	47		2	unambiguous	left	preferred	70.0	151.0		28.057334399898537	0.033513200003653765
6	23.117495499900542	stim	48		2	unambiguous	left	preferred	70.0	151.0		28.09084759990219	0.03342350001912564
6	23.150918999919668	stim	49		2	unambiguous	left	preferred	70.0	151.0		28.124271099921316	0.033575400011613965
6	23.184494399931282	stim	50		2	unambiguous	left	preferred	70.0	151.0		28.15784649993293	0.033160499995574355
6	23.217654899926856	stim	51		2	unambiguous	left	preferred	70.0	151.0		28.191006999928504	0.033170900074765086
6	23.25082580000162	stim	52		2	unambiguous	left	preferred	70.0	151.0		28.22417790000327	0.03342319990042597
6	23.284248999902047	stim	53		2	unambiguous	left	preferred	70.0	151.0		28.257601099903695	0.033200500067323446
6	23.31744949996937	stim	54		2	unambiguous	left	preferred	70.0	151.0		28.29080159997102	0.033311799983493984
6	23.350761299952865	stim	55		2	unambiguous	left	preferred	70.0	151.0		28.324113399954513	0.03375539998523891
6	23.384516699938104	stim	56		2	unambiguous	left	preferred	70.0	151.0		28.35786879993975	0.033218299970030785
6	23.417734999908134	stim	57		2	unambiguous	left	preferred	70.0	151.0		28.391087099909782	0.05131730006542057
6	23.469052299973555	stim	58		2	unambiguous	left	preferred	70.0	151.0		28.442404399975203	0.03191699995659292
6	23.500969299930148	stim	59		2	unambiguous	left	preferred	70.0	151.0		28.474321399931796	0.0318960000295192
6	23.532865299959667	stim	60		2	unambiguous	left	preferred	70.0	151.0		28.506217399961315	0.03450479998718947
6	23.567370099946856	stim	61		2	unambiguous	left	preferred	70.0	151.0		28.540722199948505	0.033941200003027916
6	23.601311299949884	stim	62		2	unambiguous	left	preferred	70.0	151.0		28.574663399951532	0.032915999996475875
6	23.63422729994636	stim	63		2	unambiguous	left	preferred	70.0	151.0		28.60757939994801	0.03487810003571212
6	23.669105399982072	stim	64		2	unambiguous	left	preferred	70.0	151.0		28.64245749998372	0.03168519993778318
6	23.700790599919856	stim	65		2	unambiguous	left	preferred	70.0	151.0		28.674142699921504	0.03332729998510331
6	23.73411789990496	stim	66		2	unambiguous	left	preferred	70.0	151.0		28.707469999906607	0.033344099996611476
6	23.76746199990157	stim	67		2	unambiguous	left	preferred	70.0	151.0		28.74081409990322	0.03335430007427931
6	23.80081629997585	stim	68		2	unambiguous	left	preferred	70.0	151.0		28.774168399977498	0.03238569991663098
6	23.83320199989248	stim	69		2	unambiguous	left	preferred	70.0	151.0		28.80655409989413	0.03461480000987649
7	23.867816799902357	stim	0		2	unambiguous	right	preferred	71.0	31.0		28.841168899904005	0.032873300020582974
7	23.90069009992294	stim	1		2	unambiguous	right	preferred	71.0	31.0		28.874042199924588	0.033373899990692735
7	23.934063999913633	stim	2		2	unambiguous	right	preferred	71.0	31.0		28.90741609991528	0.03330480004660785
7	23.96736879996024	stim	3		2	unambiguous	right	preferred	71.0	31.0		28.94072089996189	0.03323699999600649
7	24.000605799956247	stim	4		2	unambiguous	right	preferred	71.0	31.0		28.973957899957895	0.03250510001089424
7	24.03311089996714	stim	5		2	unambiguous	right	preferred	71.0	31.0		29.00646299996879	0.034433500026352704
7	24.067544399993494	stim	6		2	unambiguous	right	preferred	71.0	31.0		29.040896499995142	0.034827499999664724
7	24.10237189999316	stim	7		2	unambiguous	right	preferred	71.0	31.0		29.075723999994807	0.03172309999354184
7	24.1340949999867	stim	8		2	unambiguous	right	preferred	71.0	31.0		29.10744709998835	0.03356399992480874
7	24.16765899991151	stim	9		2	unambiguous	right	preferred	71.0	31.0		29.141011099913158	0.03302760003134608
7	24.200686599942856	stim	10		2	unambiguous	right	preferred	71.0	31.0		29.174038699944504	0.03355870000086725
7	24.234245299943723	stim	11		2	unambiguous	right	preferred	71.0	31.0		29.20759739994537	0.03374910005368292
7	24.267994399997406	stim	12		2	unambiguous	right	preferred	71.0	31.0		29.241346499999054	0.03320219996385276
7	24.30119659996126	stim	13		2	unambiguous	right	preferred	71.0	31.0		29.274548699962907	0.03283929999452084
7	24.33403589995578	stim	14		2	unambiguous	right	preferred	71.0	31.0		29.307387999957427	0.033328099991194904
7	24.367363999946974	stim	15		2	unambiguous	right	preferred	71.0	31.0		29.340716099948622	0.033286700025200844
7	24.400650699972175	stim	16		2	unambiguous	right	preferred	71.0	31.0		29.374002799973823	0.033589500002563
7	24.434240199974738	stim	17		2	unambiguous	right	preferred	71.0	31.0		29.407592299976386	0.0342899999814108
7	24.46853019995615	stim	18		2	unambiguous	right	preferred	71.0	31.0		29.441882299957797	0.032471699989400804
7	24.50100189994555	stim	19		2	unambiguous	right	preferred	71.0	31.0		29.474353999947198	0.033196100033819675
7	24.53419799997937	stim	20		2	unambiguous	right	preferred	71.0	31.0		29.507550099981017	0.03334630001336336
7	24.567544299992733	stim	21		2	unambiguous	right	preferred	71.0	31.0		29.54089639999438	0.033799199969507754
7	24.60134349996224	stim	22		2	unambiguous	right	preferred	71.0	31.0		29.57469559996389	0.03331550001166761
7	24.634658999973908	stim	23		2	unambiguous	right	preferred	71.0	31.0		29.608011099975556	0.034080800018273294
7	24.66873979999218	stim	24		2	unambiguous	right	preferred	71.0	31.0		29.64209189999383	0.03297299996484071
7	24.701712799957022	stim	25		2	unambiguous	right	preferred	71.0	31.0		29.67506489995867	0.03409500000998378
7	24.735807799967006	stim	26		2	unambiguous	right	preferred	71.0	31.0		29.709159899968654	0.032690700027160347
7	24.768498499994166	stim	27		2	unambiguous	right	preferred	71.0	31.0		29.741850599995814	0.03336669993586838
7	24.801865199930035	stim	28		2	unambiguous	right	preferred	71.0	31.0		29.775217299931683	0.03335070004686713
7	24.8352158999769	stim	29		2	unambiguous	right	preferred	71.0	31.0		29.80856799997855	0.03404619998764247
7	24.869262099964544	stim	30		2	unambiguous	right	preferred	71.0	31.0		29.842614199966192	0.032940999954007566
7	24.90220309991855	stim	31		2	unambiguous	right	preferred	71.0	31.0		29.8755551999202	0.03320130007341504
7	24.935404399991967	stim	32		2	unambiguous	right	preferred	71.0	31.0		29.908756499993615	0.033306899946182966
7	24.96871129993815	stim	33		2	unambiguous	right	preferred	71.0	31.0		29.942063399939798	0.03336440003477037
7	25.00207569997292	stim	34		2	unambiguous	right	preferred	71.0	31.0		29.975427799974568	0.03341589996125549
7	25.035491599934176	stim	35		2	unambiguous	right	preferred	71.0	31.0		30.008843699935824	0.033730800030753016
7	25.06922239996493	stim	36		2	unambiguous	right	preferred	71.0	31.0		30.042574499966577	0.03356419992633164
7	25.10278659989126	stim	37		2	unambiguous	right	preferred	71.0	31.0		30.07613869989291	0.03305620001628995
7	25.13584279990755	stim	38		2	unambiguous	right	preferred	71.0	31.0		30.1091948999092	0.03325199999380857
7	25.16909479990136	stim	39		2	unambiguous	right	preferred	71.0	31.0		30.142446899903007	0.033584300079382956
7	25.20267909998074	stim	40		2	unambiguous	right	preferred	71.0	31.0		30.17603119998239	0.03331590001471341
7	25.235994999995455	stim	41		2	unambiguous	right	preferred	71.0	31.0		30.209347099997103	0.033761699916794896
7	25.26975669991225	stim	42		2	unambiguous	right	preferred	71.0	31.0		30.243108799913898	0.03418369998689741
7	25.303940399899147	stim	43		2	unambiguous	right	preferred	71.0	31.0		30.277292499900796	0.032236200058832765
7	25.33617659995798	stim	44		2	unambiguous	right	preferred	71.0	31.0		30.30952869995963	0.03328720002900809
7	25.36946379998699	stim	45		2	unambiguous	right	preferred	71.0	31.0		30.342815899988636	0.03329729998949915
7	25.402761099976487	stim	46		2	unambiguous	right	preferred	71.0	31.0		30.376113199978136	0.033339699963107705
7	25.436100799939595	stim	47		2	unambiguous	right	preferred	71.0	31.0		30.409452899941243	0.0335657000541687
7	25.469666499993764	stim	48		2	unambiguous	right	preferred	71.0	31.0		30.443018599995412	0.033793099923059344
7	25.503459599916823	stim	49		2	unambiguous	right	preferred	71.0	31.0		30.47681169991847	0.033202300081029534
7	25.536661899997853	stim	50		2	unambiguous	right	preferred	71.0	31.0		30.5100139999995	0.033302599913440645
7	25.569964499911293	stim	51		2	unambiguous	right	preferred	71.0	31.0		30.54331659991294	0.03325049998238683
7	25.60321499989368	stim	52		2	unambiguous	right	preferred	71.0	31.0		30.57656709989533	0.033334100036881864
7	25.636549099930562	stim	53		2	unambiguous	right	preferred	71.0	31.0		30.60990119993221	0.03332290006801486
7	25.669871999998577	stim	54		2	unambiguous	right	preferred	71.0	31.0		30.643224100000225	0.033671299926936626
7	25.703543299925514	stim	55		2	unambiguous	right	preferred	71.0	31.0		30.67689539992716	0.03401910001412034
7	25.737562399939634	stim	56		2	unambiguous	right	preferred	71.0	31.0		30.710914499941282	0.04904900002293289
7	25.786611399962567	stim	57		2	unambiguous	right	preferred	71.0	31.0		30.759963499964215	0.03327359992545098
7	25.819884999888018	stim	58		2	unambiguous	right	preferred	71.0	31.0		30.793237099889666	0.03331070009153336
7	25.85319569997955	stim	59		2	unambiguous	right	preferred	71.0	31.0		30.8265477999812	0.0333602000027895
7	25.88655589998234	stim	60		2	unambiguous	right	preferred	71.0	31.0		30.85990799998399	0.03367179993074387
7	25.920227699913085	stim	61		2	unambiguous	right	preferred	71.0	31.0		30.893579799914733	0.033615700085647404
7	25.953843399998732	stim	62		2	unambiguous	right	preferred	71.0	31.0		30.92719550000038	0.03298279992304742
7	25.98682619992178	stim	63		2	unambiguous	right	preferred	71.0	31.0		30.960178299923427	0.03327230003196746
7	26.020098499953747	stim	64		2	unambiguous	right	preferred	71.0	31.0		30.993450599955395	0.03330410004127771
7	26.053402599995025	stim	65		2	unambiguous	right	preferred	71.0	31.0		31.026754699996673	0.03333159990143031
7	26.086734199896455	stim	66		2	unambiguous	right	preferred	71.0	31.0		31.060086299898103	0.03363250009715557
7	26.12036669999361	stim	67		2	unambiguous	right	preferred	71.0	31.0		31.09371879999526	0.03412409999873489
7	26.154490799992345	stim	68		2	unambiguous	right	preferred	71.0	31.0		31.127842899993993	0.03254209994338453
7	26.18703289993573	stim	69		2	unambiguous	right	preferred	71.0	31.0		31.160384999937378	0.03332120005507022
7	26.2203540999908	stim	70		2	unambiguous	right	preferred	71.0	31.0		31.193706199992448	0.03327689995057881
8	26.25363099994138	stim	0		2	unambiguous	left	preferred	68.0	102.0		31.226983099943027	0.03332589997444302
8	26.286956899915822	stim	1		2	unambiguous	left	preferred	68.0	102.0		31.26030899991747	0.03372280008625239
8	26.320679700002074	stim	2		2	unambiguous	left	preferred	68.0	102.0		31.294031800003722	0.033727799891494215
8	26.35440749989357	stim	3		2	unambiguous	left	preferred	68.0	102.0		31.327759599895217	0.032991900108754635
8	26.387399400002323	stim	4		2	unambiguous	left	preferred	68.0	102.0		31.36075150000397	0.03329599997960031
8	26.420695399981923	stim	5		2	unambiguous	left	preferred	68.0	102.0		31.39404749998357	0.03334969992283732
8	26.45404509990476	stim	6		2	unambiguous	left	preferred	68.0	102.0		31.42739719990641	0.033547200029715896
8	26.487592299934477	stim	7		2	unambiguous	left	preferred	68.0	102.0		31.460944399936125	0.03332449996378273
8	26.52091679989826	stim	8		2	unambiguous	left	preferred	68.0	102.0		31.494268899899907	0.03362350002862513
8	26.554540299926884	stim	9		2	unambiguous	left	preferred	68.0	102.0		31.527892399928533	0.03338080004323274
8	26.587921099970117	stim	10		2	unambiguous	left	preferred	68.0	102.0		31.561273199971765	0.033194700023159385
8	26.621115799993277	stim	11		2	unambiguous	left	preferred	68.0	102.0		31.594467899994925	0.03329589997883886
8	26.654411699972115	stim	12		2	unambiguous	left	preferred	68.0	102.0		31.627763799973764	0.03348959994036704
8	26.687901299912483	stim	13		2	unambiguous	left	preferred	68.0	102.0		31.66125339991413	0.033323800074867904
8	26.72122509998735	stim	14		2	unambiguous	left	preferred	68.0	102.0		31.694577199989	0.033732399926520884
8	26.75495749991387	stim	15		2	unambiguous	left	preferred	68.0	102.0		31.72830959991552	0.034170800005085766
8	26.789128299918957	stim	16		2	unambiguous	left	preferred	68.0	102.0		31.762480399920605	0.03237000002991408
8	26.82149829994887	stim	17		2	unambiguous	left	preferred	68.0	102.0		31.79485039995052	0.033659499953500926
8	26.855157799902372	stim	18		2	unambiguous	left	preferred	68.0	102.0		31.82850989990402	0.03326350008137524
8	26.888421299983747	stim	19		2	unambiguous	left	preferred	68.0	102.0		31.861773399985395	0.033842099946923554
8	26.92226339993067	stim	20		2	unambiguous	left	preferred	68.0	102.0		31.89561549993232	0.033554499968886375
8	26.955817899899557	stim	21		2	unambiguous	left	preferred	68.0	102.0		31.929169999901205	0.03433729999233037
8	26.990155199891888	stim	22		2	unambiguous	left	preferred	68.0	102.0		31.963507299893536	0.03240470006130636
8	27.022559899953194	stim	23		2	unambiguous	left	preferred	68.0	102.0		31.995911999954842	0.03332089993637055
8	27.055880799889565	stim	24		2	unambiguous	left	preferred	68.0	102.0		32.02923289989121	0.03329150006175041
8	27.089172299951315	stim	25		2	unambiguous	left	preferred	68.0	102.0		32.06252439995296	0.033299900009296834
8	27.12247219996061	stim	26		2	unambiguous	left	preferred	68.0	102.0		32.09582429996226	0.03336030000355095
8	27.155832499964163	stim	27		2	unambiguous	left	preferred	68.0	102.0		32.12918459996581	0.033964699949137866
8	27.1897971999133	stim	28		2	unambiguous	left	preferred	68.0	102.0		32.16314929991495	0.033159099984914064
8	27.222956299898215	stim	29		2	unambiguous	left	preferred	68.0	102.0		32.19630839989986	0.033206299995072186
8	27.256162599893287	stim	30		2	unambiguous	left	preferred	68.0	102.0		32.229514699894935	0.03333630005363375
8	27.28949889994692	stim	31		2	unambiguous	left	preferred	68.0	102.0		32.26285099994857	0.03328860003966838
8	27.32278749998659	stim	32		2	unambiguous	left	preferred	68.0	102.0		32.29613959998824	0.03363530000206083
8	27.35642279998865	stim	33		2	unambiguous	left	preferred	68.0	102.0		32.3297748999903	0.03405559994280338
8	27.390478399931453	stim	34		2	unambiguous	left	preferred	68.0	102.0		32.3638304999331	0.033413800061680377
8	27.423892199993134	stim	35		2	unambiguous	left	preferred	68.0	102.0		32.39724429999478	0.03332529996987432
8	27.457217499963008	stim	36		2	unambiguous	left	preferred	68.0	102.0		32.430569599964656	0.033348000026308
8	27.490565499989316	stim	37		2	unambiguous	left	preferred	68.0	102.0		32.463917599990964	0.033603299991227686
8	27.524168799980544	stim	38		2	unambiguous	left	preferred	68.0	102.0		32.49752089998219	0.03388429991900921
8	27.558053099899553	stim	39		2	unambiguous	left	preferred	68.0	102.0		32.5314051999012	0.03409040009137243
8	27.592143499990925	stim	40		2	unambiguous	left	preferred	68.0	102.0		32.56549559999257	0.032964699901640415
8	27.625108199892566	stim	41		2	unambiguous	left	preferred	68.0	102.0		32.598460299894214	0.03360980004072189
8	27.658717999933288	stim	42		2	unambiguous	left	preferred	68.0	102.0		32.632070099934936	0.033226000028662384
8	27.69194399996195	stim	43		2	unambiguous	left	preferred	68.0	102.0		32.6652960999636	0.03335089993197471
8	27.725294899893925	stim	44		2	unambiguous	left	preferred	68.0	102.0		32.69864699989557	0.03387680009473115
8	27.759171699988656	stim	45		2	unambiguous	left	preferred	68.0	102.0		32.732523799990304	0.03420309990178794
8	27.793374799890444	stim	46		2	unambiguous	left	preferred	68.0	102.0		32.76672689989209	0.032856600009836257
8	27.82623139990028	stim	47		2	unambiguous	left	preferred	68.0	102.0		32.79958349990193	0.03330320003442466
8	27.859534599934705	stim	48		2	unambiguous	left	preferred	68.0	102.0		32.83288669993635	0.03335000004153699
8	27.89288459997624	stim	49		2	unambiguous	left	preferred	68.0	102.0		32.86623669997789	0.03372429998125881
8	27.9266088999575	stim	50		2	unambiguous	left	preferred	68.0	102.0		32.89996099995915	0.03340880002360791
8	27.96001769998111	stim	51		2	unambiguous	left	preferred	68.0	102.0		32.933369799982756	0.0336638999870047
8	27.993681599968113	stim	52		2	unambiguous	left	preferred	68.0	102.0		32.96703369996976	0.033526499988511205
8	28.027208099956624	stim	53		2	unambiguous	left	preferred	68.0	102.0		33.00056019995827	0.03363640001043677
8	28.06084449996706	stim	54		2	unambiguous	left	preferred	68.0	102.0		33.03419659996871	0.033833299996331334
8	28.094677799963392	stim	55		2	unambiguous	left	preferred	68.0	102.0		33.06802989996504	0.033661399967968464
8	28.12833919993136	stim	56		2	unambiguous	left	preferred	68.0	102.0		33.10169129993301	0.05022750003263354
8	28.178566699963994	stim	57		2	unambiguous	left	preferred	68.0	102.0		33.15191879996564	0.0497911999700591
8	28.228357899934053	stim	58		2	unambiguous	left	preferred	68.0	102.0		33.2017099999357	0.03343069995753467
8	28.261788599891588	stim	59		2	unambiguous	left	preferred	68.0	102.0		33.235140699893236	0.033741399995051324
8	28.29552999988664	stim	60		2	unambiguous	left	preferred	68.0	102.0		33.26888209988829	0.03344400005880743
8	28.328973999945447	stim	61		2	unambiguous	left	preferred	68.0	102.0		33.302326099947095	0.03388300002552569
8	28.362856999970973	stim	62		2	unambiguous	left	preferred	68.0	102.0		33.33620909997262	0.03343970002606511
8	28.396296699997038	stim	63		2	unambiguous	left	preferred	68.0	102.0		33.369648799998686	0.033532399917021394
8	28.42982909991406	stim	64		2	unambiguous	left	preferred	68.0	102.0		33.40318119991571	0.03340590000152588
8	28.463234999915585	stim	65		2	unambiguous	left	preferred	68.0	102.0		33.43658709991723	0.03327200002968311
8	28.496506999945268	stim	66		2	unambiguous	left	preferred	68.0	102.0		33.469859099946916	0.03333709994331002
8	28.529844099888578	stim	67		2	unambiguous	left	preferred	68.0	102.0		33.503196199890226	0.03326830000150949
9	28.563112399890088	stim	0		2	unambiguous	right	preferred	46.0	170.0		33.536464499891736	0.03318670007865876
9	28.596299099968746	stim	1		2	unambiguous	right	preferred	46.0	170.0		33.569651199970394	0.03906510001979768
9	28.635364199988544	stim	2		2	unambiguous	right	preferred	46.0	170.0		33.60871629999019	0.027926999959163368
9	28.663291199947707	stim	3		2	unambiguous	right	preferred	46.0	170.0		33.636643299949355	0.033335500047542155
9	28.69662669999525	stim	4		2	unambiguous	right	preferred	46.0	170.0		33.6699787999969	0.033358999993652105
9	28.7299856999889	stim	5		2	unambiguous	right	preferred	46.0	170.0		33.70333779999055	0.036727899918332696
9	28.766713599907234	stim	6		2	unambiguous	right	preferred	46.0	170.0		33.74006569990888	0.02959200006444007
9	28.796305599971674	stim	7		2	unambiguous	right	preferred	46.0	170.0		33.76965769997332	0.034138299990445375
9	28.83044389996212	stim	8		2	unambiguous	right	preferred	46.0	170.0		33.80379599996377	0.03309439995791763
9	28.863538299920037	stim	9		2	unambiguous	right	preferred	46.0	170.0		33.836890399921685	0.033342899987474084
9	28.89688119990751	stim	10		2	unambiguous	right	preferred	46.0	170.0		33.87023329990916	0.033376800012774765
9	28.930257999920286	stim	11		2	unambiguous	right	preferred	46.0	170.0		33.903610099921934	0.03326920000836253
9	28.96352719992865	stim	12		2	unambiguous	right	preferred	46.0	170.0		33.9368792999303	0.036388900014571846
9	28.99991609994322	stim	13		2	unambiguous	right	preferred	46.0	170.0		33.97326819994487	0.0305684000486508
9	29.03048449999187	stim	14		2	unambiguous	right	preferred	46.0	170.0		34.00383659999352	0.0366920999949798
9	29.06717659998685	stim	15		2	unambiguous	right	preferred	46.0	170.0		34.0405286999885	0.03345609991811216
9	29.100632699904963	stim	16		2	unambiguous	right	preferred	46.0	170.0		34.07398479990661	0.03337050008121878
9	29.134003199986182	stim	17		2	unambiguous	right	preferred	46.0	170.0		34.10735529998783	0.03328809991944581
9	29.167291299905628	stim	18		2	unambiguous	right	preferred	46.0	170.0		34.140643399907276	0.03382410004269332
9	29.20111539994832	stim	19		2	unambiguous	right	preferred	46.0	170.0		34.17446749994997	0.03319119999650866
9	29.23430659994483	stim	20		2	unambiguous	right	preferred	46.0	170.0		34.20765869994648	0.03474459995049983
9	29.26905119989533	stim	21		2	unambiguous	right	preferred	46.0	170.0		34.24240329989698	0.031719200080260634
9	29.30077039997559	stim	22		2	unambiguous	right	preferred	46.0	170.0		34.27412249997724	0.03328319999855012
9	29.33405359997414	stim	23		2	unambiguous	right	preferred	46.0	170.0		34.30740569997579	0.032194399973377585
9	29.366247999947518	stim	24		2	unambiguous	right	preferred	46.0	170.0		34.339600099949166	0.0346329000312835
9	29.4008808999788	stim	25		2	unambiguous	right	preferred	46.0	170.0		34.37423299998045	0.03328400000464171
9	29.434164899983443	stim	26		2	unambiguous	right	preferred	46.0	170.0		34.40751699998509	0.03343640000093728
9	29.46760129998438	stim	27		2	unambiguous	right	preferred	46.0	170.0		34.44095339998603	0.049570699920877814
9	29.51717199990526	stim	28		2	unambiguous	right	preferred	46.0	170.0		34.49052409990691	0.03345490002539009
9	29.55062689993065	stim	29		2	unambiguous	right	preferred	46.0	170.0		34.5239789999323	0.033291000057943165
9	29.58391789998859	stim	30		2	unambiguous	right	preferred	46.0	170.0		34.55726999999024	0.03360309998970479
9	29.617520999978296	stim	31		2	unambiguous	right	preferred	46.0	170.0		34.590873099979945	0.033452400006353855
9	29.65097339998465	stim	32		2	unambiguous	right	preferred	46.0	170.0		34.6243254999863	0.03323429997544736
9	29.684207699960098	stim	33		2	unambiguous	right	preferred	46.0	170.0		34.657559799961746	0.03304230002686381
9	29.71724999998696	stim	34		2	unambiguous	right	preferred	46.0	170.0		34.69060209998861	0.03333329991437495
9	29.750583299901336	stim	35		2	unambiguous	right	preferred	46.0	170.0		34.723935399902984	0.03334100008942187
9	29.78392429999076	stim	36		2	unambiguous	right	preferred	46.0	170.0		34.757276399992406	0.03324889997020364
9	29.817173199960962	stim	37		2	unambiguous	right	preferred	46.0	170.0		34.79052529996261	0.0340491000097245
9	29.851222299970686	stim	38		2	unambiguous	right	preferred	46.0	170.0		34.824574399972335	0.03294619999360293
9	29.88416849996429	stim	39		2	unambiguous	right	preferred	46.0	170.0		34.85752059996594	0.034747199970297515
9	29.918915699934587	stim	40		2	unambiguous	right	preferred	46.0	170.0		34.892267799936235	0.030391099979169667
9	29.949306799913757	stim	41		2	unambiguous	right	preferred	46.0	170.0		34.922658899915405	0.034652000060305
9	29.98395879997406	stim	42		2	unambiguous	right	preferred	46.0	170.0		34.95731089997571	0.033329600002616644
9	30.017288399976678	stim	43		2	unambiguous	right	preferred	46.0	170.0		34.990640499978326	0.03344759996980429
9	30.050735999946482	stim	44		2	unambiguous	right	preferred	46.0	170.0		35.02408809994813	0.0334216000046581
9	30.08415759995114	stim	45		2	unambiguous	right	preferred	46.0	170.0		35.05750969995279	0.03340549999848008
0	30.11756309994962	stim	0		94	break	break	preferred	1.0	0.0		35.09091519995127	1.6354180000489578
