trial_nr	onset	event_type	phase	response	nr_frames	block_type	trial_type	response_hand	phase_length	key_duration	onset_abs	duration
0	0.016668699914589524	stim	0		0	break	break	preferred	1.0		5.062740099849179	3.357191600021906
0	3.3738602999364957	break	0	space	0	break	break	preferred	1.0	0.06352069997228682	8.419931699871086	0.37092929997015744
0	3.744789599906653	break	0	space	599	break	break	preferred	1.0	0.06464530003722757	8.790860999841243	6.362907800008543
1	10.107697399915196	stim	0		2	ambiguous	ambiguous	preferred	600.0		15.153768799849786	0.033343200106173754
1	10.14104060002137	stim	1		2	ambiguous	ambiguous	preferred	600.0		15.18711199995596	0.03373569995164871
1	10.174776299973018	stim	2		2	ambiguous	ambiguous	preferred	600.0		15.220847699907608	0.033567799953743815
1	10.208344099926762	stim	3		2	ambiguous	ambiguous	preferred	600.0		15.254415499861352	0.03337309998460114
1	10.241717199911363	stim	4		2	ambiguous	ambiguous	preferred	600.0		15.287788599845953	0.033396200044080615
1	10.275113399955444	stim	5		2	ambiguous	ambiguous	preferred	600.0		15.321184799890034	0.03522479999810457
1	10.310338199953549	stim	6		2	ambiguous	ambiguous	preferred	600.0		15.356409599888138	0.03323399997316301
1	10.343572199926712	stim	7		2	ambiguous	ambiguous	preferred	600.0		15.389643599861301	0.03340040007606149
1	10.376972600002773	stim	8		2	ambiguous	ambiguous	preferred	600.0		15.423043999937363	0.03334939992055297
1	10.410321999923326	stim	9		2	ambiguous	ambiguous	preferred	600.0		15.456393399857916	0.03387130005285144
1	10.444193299976178	stim	10		2	ambiguous	ambiguous	preferred	600.0		15.490264699910767	0.03264320001471788
1	10.476836499990895	stim	11		2	ambiguous	ambiguous	preferred	600.0		15.522907899925485	0.03330010001081973
1	10.510136600001715	stim	12		2	ambiguous	ambiguous	preferred	600.0		15.556207999936305	0.03344719996675849
1	10.543583799968474	stim	13		2	ambiguous	ambiguous	preferred	600.0		15.589655199903063	0.03332539997063577
1	10.57690919993911	stim	14		2	ambiguous	ambiguous	preferred	600.0		15.6229805998737	0.03339520003646612
1	10.610304399975576	stim	15		2	ambiguous	ambiguous	preferred	600.0		15.656375799910165	0.03328079998027533
1	10.64358519995585	stim	16		2	ambiguous	ambiguous	preferred	600.0		15.68965659989044	0.03334500000346452
1	10.676930199959315	stim	17		2	ambiguous	ambiguous	preferred	600.0		15.723001599893905	0.03350170003250241
1	10.710431899991818	stim	18		2	ambiguous	ambiguous	preferred	600.0		15.756503299926408	0.03349329996854067
1	10.743925199960358	stim	19		2	ambiguous	ambiguous	preferred	600.0		15.789996599894948	0.0332668999908492
1	10.777192099951208	stim	20		2	ambiguous	ambiguous	preferred	600.0		15.823263499885798	0.03393130004405975
1	10.811123399995267	stim	21		2	ambiguous	ambiguous	preferred	600.0		15.857194799929857	0.033190099988132715
1	10.8443134999834	stim	22		2	ambiguous	ambiguous	preferred	600.0		15.89038489991799	0.03345789993181825
1	10.877771399915218	stim	23		2	ambiguous	ambiguous	preferred	600.0		15.923842799849808	0.03341480006929487
1	10.911186199984513	stim	24		2	ambiguous	ambiguous	preferred	600.0		15.957257599919103	0.033341299975290895
1	10.944527499959804	stim	25		2	ambiguous	ambiguous	preferred	600.0		15.990598899894394	0.03330799995455891
1	10.977835499914363	stim	26		2	ambiguous	ambiguous	preferred	600.0		16.023906899848953	0.033389100106433034
1	11.011224600020796	stim	27		2	ambiguous	ambiguous	preferred	600.0		16.057295999955386	0.03342789993621409
1	11.04465249995701	stim	28		2	ambiguous	ambiguous	preferred	600.0		16.0907238998916	0.03361030004452914
1	11.07826280000154	stim	29		2	ambiguous	ambiguous	preferred	600.0		16.12433419993613	0.03363429999444634
1	11.111897099995986	stim	30		2	ambiguous	ambiguous	preferred	600.0		16.157968499930575	0.03364229993894696
1	11.145539399934933	stim	31		2	ambiguous	ambiguous	preferred	600.0		16.191610799869522	0.0332626000745222
1	11.178802000009455	stim	32		2	ambiguous	ambiguous	preferred	600.0		16.224873399944045	0.03307809995021671
1	11.211880099959671	stim	33		2	ambiguous	ambiguous	preferred	600.0		16.25795149989426	0.033511799992993474
1	11.245391899952665	stim	34		2	ambiguous	ambiguous	preferred	600.0		16.291463299887255	0.03339850006159395
1	11.278790400014259	stim	35		2	ambiguous	ambiguous	preferred	600.0		16.32486179994885	0.03338589996565133
1	11.31217629997991	stim	36		2	ambiguous	ambiguous	preferred	600.0		16.3582476999145	0.03327479993458837
1	11.345451099914499	stim	37		2	ambiguous	ambiguous	preferred	600.0		16.39152249984909	0.03364250005688518
1	11.379093599971384	stim	38		2	ambiguous	ambiguous	preferred	600.0		16.425164999905974	0.03332030004821718
1	11.412413900019601	stim	39		2	ambiguous	ambiguous	preferred	600.0		16.45848529995419	0.03343779989518225
1	11.445851699914783	stim	40		2	ambiguous	ambiguous	preferred	600.0		16.491923099849373	0.03326820000074804
1	11.479119899915531	stim	41		2	ambiguous	ambiguous	preferred	600.0		16.52519129985012	0.033305700053460896
1	11.512425599968992	stim	42		2	ambiguous	ambiguous	preferred	600.0		16.558496999903582	0.033370899967849255
1	11.545796499936841	stim	43		2	ambiguous	ambiguous	preferred	600.0		16.59186789987143	0.03332570008933544
1	11.579122200026177	stim	44		2	ambiguous	ambiguous	preferred	600.0		16.625193599960767	0.0333447998855263
1	11.612466999911703	stim	45		2	ambiguous	ambiguous	preferred	600.0		16.658538399846293	0.033491000067442656
1	11.645957999979146	stim	46		2	ambiguous	ambiguous	preferred	600.0		16.692029399913736	0.033290699939243495
1	11.67924869991839	stim	47		2	ambiguous	ambiguous	preferred	600.0		16.72532009985298	0.03333890007343143
1	11.71258759999182	stim	48		2	ambiguous	ambiguous	preferred	600.0		16.75865899992641	0.03338159993290901
1	11.74596919992473	stim	49		2	ambiguous	ambiguous	preferred	600.0		16.79204059985932	0.03330160002224147
1	11.779270799946971	stim	50		2	ambiguous	ambiguous	preferred	600.0		16.82534219988156	0.03327700006775558
1	11.812547800014727	stim	51		2	ambiguous	ambiguous	preferred	600.0		16.858619199949317	0.03334339999128133
1	11.845891200006008	stim	52		2	ambiguous	ambiguous	preferred	600.0		16.891962599940598	0.033597299945540726
1	11.879488499951549	stim	53		2	ambiguous	ambiguous	preferred	600.0		16.92555989988614	0.033271500025875866
1	11.912759999977425	stim	54		2	ambiguous	ambiguous	preferred	600.0		16.958831399912015	0.03328610002063215
1	11.946046099998057	stim	55		2	ambiguous	ambiguous	preferred	600.0		16.992117499932647	0.03334319998975843
1	11.979389299987815	stim	56		2	ambiguous	ambiguous	preferred	600.0		17.025460699922405	0.03330969996750355
1	12.012698999955319	stim	57		2	ambiguous	ambiguous	preferred	600.0		17.05877039988991	0.03383740002755076
1	12.04653639998287	stim	58		2	ambiguous	ambiguous	preferred	600.0		17.09260779991746	0.03351239999756217
1	12.080048799980432	stim	59		2	ambiguous	ambiguous	preferred	600.0		17.12612019991502	0.03334309998899698
1	12.113391899969429	stim	60		2	ambiguous	ambiguous	preferred	600.0		17.15946329990402	0.033149000024423
1	12.146540899993852	stim	61		2	ambiguous	ambiguous	preferred	600.0		17.19261229992844	0.03375389997381717
1	12.180294799967669	stim	62		2	ambiguous	ambiguous	preferred	600.0		17.22636619990226	0.03339869994670153
1	12.21369349991437	stim	63		2	ambiguous	ambiguous	preferred	600.0		17.25976489984896	0.03329940000548959
1	12.24699289991986	stim	64		2	ambiguous	ambiguous	preferred	600.0		17.29306429985445	0.03359400003682822
1	12.280586899956688	stim	65		2	ambiguous	ambiguous	preferred	600.0		17.326658299891278	0.033102600020356476
1	12.313689499977045	stim	66		2	ambiguous	ambiguous	preferred	600.0		17.359760899911635	0.03397320001386106
1	12.347662699990906	stim	67		2	ambiguous	ambiguous	preferred	600.0		17.393734099925496	0.03319490002468228
1	12.380857600015588	stim	68		2	ambiguous	ambiguous	preferred	600.0		17.426928999950178	0.03359699994325638
1	12.414454599958844	stim	69		2	ambiguous	ambiguous	preferred	600.0		17.460525999893434	0.0331614000024274
1	12.447615999961272	stim	70		2	ambiguous	ambiguous	preferred	600.0		17.49368739989586	0.03333070001099259
1	12.480946699972264	stim	71		2	ambiguous	ambiguous	preferred	600.0		17.527018099906854	0.0334459999576211
1	12.514392699929886	stim	72		2	ambiguous	ambiguous	preferred	600.0		17.560464099864475	0.0331878000870347
1	12.54758050001692	stim	73		2	ambiguous	ambiguous	preferred	600.0		17.59365189995151	0.033305799937807024
1	12.580886299954727	stim	74		2	ambiguous	ambiguous	preferred	600.0		17.626957699889317	0.03337039996404201
1	12.61425669991877	stim	75		2	ambiguous	ambiguous	preferred	600.0		17.66032809985336	0.03369930002372712
1	12.647955999942496	stim	76		2	ambiguous	ambiguous	preferred	600.0		17.694027399877086	0.033458600053563714
1	12.68141459999606	stim	77		2	ambiguous	ambiguous	preferred	600.0		17.72748599993065	0.03368290001526475
1	12.715097500011325	stim	78		2	ambiguous	ambiguous	preferred	600.0		17.761168899945915	0.03327419993001968
1	12.748371699941345	stim	79		2	ambiguous	ambiguous	preferred	600.0		17.794443099875934	0.03328910004347563
1	12.78166079998482	stim	80		2	ambiguous	ambiguous	preferred	600.0		17.82773219991941	0.033380100037902594
1	12.815040900022723	stim	81		2	ambiguous	ambiguous	preferred	600.0		17.861112299957313	0.03323389997240156
1	12.848274799995124	stim	82		2	ambiguous	ambiguous	preferred	600.0		17.894346199929714	0.033418199978768826
1	12.881692999973893	stim	83		2	ambiguous	ambiguous	preferred	600.0		17.927764399908483	0.03351360000669956
1	12.915206599980593	stim	84		2	ambiguous	ambiguous	preferred	600.0		17.961277999915183	0.03330769995227456
1	12.948514299932867	stim	85		2	ambiguous	ambiguous	preferred	600.0		17.994585699867457	0.033312899991869926
1	12.981827199924737	stim	86		2	ambiguous	ambiguous	preferred	600.0		18.027898599859327	0.03330630005802959
1	13.015133499982767	stim	87		2	ambiguous	ambiguous	preferred	600.0		18.061204899917357	0.0333789000287652
1	13.048512400011532	stim	88		2	ambiguous	ambiguous	preferred	600.0		18.094583799946122	0.03355719998944551
1	13.082069600000978	stim	89		2	ambiguous	ambiguous	preferred	600.0		18.128140999935567	0.03339649992994964
1	13.115466099930927	stim	90		2	ambiguous	ambiguous	preferred	600.0		18.161537499865517	0.03352140006609261
1	13.14898749999702	stim	91		2	ambiguous	ambiguous	preferred	600.0		18.19505889993161	0.03321429993957281
1	13.182201799936593	stim	92		2	ambiguous	ambiguous	preferred	600.0		18.228273199871182	0.03328019997570664
1	13.2154819999123	stim	93		2	ambiguous	ambiguous	preferred	600.0		18.26155339984689	0.033287800033576787
1	13.248769799945876	stim	94		2	ambiguous	ambiguous	preferred	600.0		18.294841199880466	0.03341799997724593
1	13.282187799923122	stim	95		2	ambiguous	ambiguous	preferred	600.0		18.328259199857712	0.03328400000464171
1	13.315471799927764	stim	96		2	ambiguous	ambiguous	preferred	600.0		18.361543199862354	0.03362650005146861
1	13.349098299979232	stim	97		2	ambiguous	ambiguous	preferred	600.0		18.395169699913822	0.03312529996037483
1	13.382223599939607	stim	98		2	ambiguous	ambiguous	preferred	600.0		18.428294999874197	0.03341610007919371
1	13.4156397000188	stim	99		2	ambiguous	ambiguous	preferred	600.0		18.46171109995339	0.033268500003032386
1	13.448908200021833	stim	100		2	ambiguous	ambiguous	preferred	600.0		18.494979599956423	0.03338479995727539
1	13.482292999979109	stim	101		2	ambiguous	ambiguous	preferred	600.0		18.5283643999137	0.033270100015215576
1	13.515563099994324	stim	102		2	ambiguous	ambiguous	preferred	600.0		18.561634499928914	0.03347519994713366
1	13.549038299941458	stim	103		2	ambiguous	ambiguous	preferred	600.0		18.595109699876048	0.03353820007760078
1	13.582576500019059	stim	104		2	ambiguous	ambiguous	preferred	600.0		18.62864789995365	0.03312449995428324
1	13.615700999973342	stim	105		2	ambiguous	ambiguous	preferred	600.0		18.66177239990793	0.033373999991454184
1	13.649074999964796	stim	106		2	ambiguous	ambiguous	preferred	600.0		18.695146399899386	0.033311399980448186
1	13.682386399945244	stim	107		2	ambiguous	ambiguous	preferred	600.0		18.728457799879834	0.033618399989791214
1	13.716004799935035	stim	108		2	ambiguous	ambiguous	preferred	600.0		18.762076199869625	0.03345730004366487
1	13.7494620999787	stim	109		2	ambiguous	ambiguous	preferred	600.0		18.79553349991329	0.03360119997523725
1	13.783063299953938	stim	110		2	ambiguous	ambiguous	preferred	600.0		18.829134699888527	0.03302470000926405
1	13.816087999963202	stim	111		2	ambiguous	ambiguous	preferred	600.0		18.86215939989779	0.03365590004250407
1	13.849743900005706	stim	112		2	ambiguous	ambiguous	preferred	600.0		18.895815299940296	0.03333739994559437
1	13.8830812999513	stim	113		2	ambiguous	ambiguous	preferred	600.0		18.92915269988589	0.033859899966046214
1	13.916941199917346	stim	114		2	ambiguous	ambiguous	preferred	600.0		18.963012599851936	0.03330990008544177
1	13.950251100002788	stim	115		2	ambiguous	ambiguous	preferred	600.0		18.996322499937378	0.033677599974907935
1	13.983928699977696	stim	116		2	ambiguous	ambiguous	preferred	600.0		19.030000099912286	0.033341099973767996
1	14.017269799951464	stim	117		2	ambiguous	ambiguous	preferred	600.0		19.063341199886054	0.03327540005557239
1	14.050545200007036	stim	118		2	ambiguous	ambiguous	preferred	600.0		19.096616599941626	0.03332739998586476
1	14.083872599992901	stim	119		2	ambiguous	ambiguous	preferred	600.0		19.12994399992749	0.03365889994893223
1	14.117531499941833	stim	120		2	ambiguous	ambiguous	preferred	600.0		19.163602899876423	0.03394860005937517
1	14.151480100001208	stim	121		2	ambiguous	ambiguous	preferred	600.0		19.1975514999358	0.03423549991566688
1	14.185715599916875	stim	122		2	ambiguous	ambiguous	preferred	600.0		19.231786999851465	0.03297880000900477
1	14.21869439992588	stim	123		2	ambiguous	ambiguous	preferred	600.0		19.26476579986047	0.033434399985708296
1	14.252128799911588	stim	124		2	ambiguous	ambiguous	preferred	600.0		19.29820019984618	0.03353320003952831
1	14.285661999951117	stim	125		2	ambiguous	ambiguous	preferred	600.0		19.331733399885707	0.033329300000332296
1	14.318991299951449	stim	126		2	ambiguous	ambiguous	preferred	600.0		19.36506269988604	0.03357420000247657
1	14.352565499953926	stim	127		2	ambiguous	ambiguous	preferred	600.0		19.398636899888515	0.033861099975183606
1	14.38642659992911	stim	128		2	ambiguous	ambiguous	preferred	600.0		19.4324979998637	0.033190299989655614
1	14.419616899918765	stim	129		2	ambiguous	ambiguous	preferred	600.0		19.465688299853355	0.03375370008870959
1	14.453370600007474	stim	130		2	ambiguous	ambiguous	preferred	600.0		19.499441999942064	0.03359409992117435
1	14.486964699928649	stim	131		2	ambiguous	ambiguous	preferred	600.0		19.53303609986324	0.03334990004077554
1	14.520314599969424	stim	132		2	ambiguous	ambiguous	preferred	600.0		19.566385999904014	0.03331580001395196
1	14.553630399983376	stim	133		2	ambiguous	ambiguous	preferred	600.0		19.599701799917966	0.03371440002229065
1	14.587344800005667	stim	134		2	ambiguous	ambiguous	preferred	600.0		19.633416199940257	0.03297880000900477
1	14.620323600014672	stim	135		2	ambiguous	ambiguous	preferred	600.0		19.66639499994926	0.033315799897536635
1	14.653639399912208	stim	136		2	ambiguous	ambiguous	preferred	600.0		19.699710799846798	0.033446800080128014
1	14.687086199992336	stim	137		2	ambiguous	ambiguous	preferred	600.0		19.733157599926926	0.03344869997818023
1	14.720534899970517	stim	138		2	ambiguous	ambiguous	preferred	600.0		19.766606299905106	0.03332519996911287
1	14.75386009993963	stim	139		2	ambiguous	ambiguous	preferred	600.0		19.79993149987422	0.033560500014573336
1	14.787420599954203	stim	140		2	ambiguous	ambiguous	preferred	600.0		19.833491999888793	0.033403499983251095
1	14.820824099937454	stim	141		2	ambiguous	ambiguous	preferred	600.0		19.866895499872044	0.033440400031395257
1	14.85426449996885	stim	142		2	ambiguous	ambiguous	preferred	600.0		19.90033589990344	0.033465699991211295
1	14.88773019996006	stim	143		2	ambiguous	ambiguous	preferred	600.0		19.93380159989465	0.03341459995135665
1	14.921144799911417	stim	144		2	ambiguous	ambiguous	preferred	600.0		19.967216199846007	0.033319100039079785
1	14.954463899950497	stim	145		2	ambiguous	ambiguous	preferred	600.0		20.000535299885087	0.03379130002576858
1	14.988255199976265	stim	146		2	ambiguous	ambiguous	preferred	600.0		20.034326599910855	0.033065699972212315
1	15.021320899948478	stim	147		2	ambiguous	ambiguous	preferred	600.0		20.067392299883068	0.03354780003428459
1	15.054868699982762	stim	148		2	ambiguous	ambiguous	preferred	600.0		20.100940099917352	0.03344679996371269
1	15.088315499946475	stim	149		2	ambiguous	ambiguous	preferred	600.0		20.134386899881065	0.03341939998790622
1	15.121734899934381	stim	150		2	ambiguous	ambiguous	preferred	600.0		20.16780629986897	0.033356400090269744
1	15.155091300024651	stim	151		2	ambiguous	ambiguous	preferred	600.0		20.20116269995924	0.0334073998965323
1	15.188498699921183	stim	152		2	ambiguous	ambiguous	preferred	600.0		20.234570099855773	0.03386500000488013
1	15.222363699926063	stim	153		2	ambiguous	ambiguous	preferred	600.0		20.268435099860653	0.03305930003989488
1	15.255422999965958	stim	154		2	ambiguous	ambiguous	preferred	600.0		20.301494399900548	0.03357910003978759
1	15.289002100005746	stim	155		2	ambiguous	ambiguous	preferred	600.0		20.335073499940336	0.033469899906776845
1	15.322471999912523	stim	156		2	ambiguous	ambiguous	preferred	600.0		20.368543399847113	0.03332100005354732
1	15.35579299996607	stim	157		2	ambiguous	ambiguous	preferred	600.0		20.40186439990066	0.03352399996947497
1	15.389316999935545	stim	158		2	ambiguous	ambiguous	preferred	600.0		20.435388399870135	0.03365740005392581
1	15.42297439998947	stim	159		2	ambiguous	ambiguous	preferred	600.0		20.46904579992406	0.03335079993121326
1	15.456325199920684	stim	160		2	ambiguous	ambiguous	preferred	600.0		20.502396599855274	0.033394900034181774
1	15.489720099954866	stim	161		2	ambiguous	ambiguous	preferred	600.0		20.535791499889456	0.033375300001353025
1	15.523095399956219	stim	162		2	ambiguous	ambiguous	preferred	600.0		20.56916679989081	0.0334413000382483
1	15.556536699994467	stim	163		2	ambiguous	ambiguous	preferred	600.0		20.602608099929057	0.03332409996073693
1	15.589860799955204	stim	164		2	ambiguous	ambiguous	preferred	600.0		20.635932199889794	0.03368270001374185
1	15.623543499968946	stim	165		2	ambiguous	ambiguous	preferred	600.0		20.669614899903536	0.03333020000718534
1	15.656873699976131	stim	166		2	ambiguous	ambiguous	preferred	600.0		20.70294509991072	0.03345340001396835
1	15.6903270999901	stim	167		2	ambiguous	ambiguous	preferred	600.0		20.73639849992469	0.03343720000702888
1	15.723764299997129	stim	168		2	ambiguous	ambiguous	preferred	600.0		20.76983569993172	0.03341309993993491
1	15.757177399937063	stim	169		2	ambiguous	ambiguous	preferred	600.0		20.803248799871653	0.033371300087310374
1	15.790548700024374	stim	170		2	ambiguous	ambiguous	preferred	600.0		20.836620099958964	0.033527999999932945
1	15.824076700024307	stim	171		2	ambiguous	ambiguous	preferred	600.0		20.870148099958897	0.03324749995954335
1	15.85732419998385	stim	172		2	ambiguous	ambiguous	preferred	600.0		20.90339559991844	0.03361879999283701
1	15.890942999976687	stim	173		2	ambiguous	ambiguous	preferred	600.0		20.937014399911277	0.033388799987733364
1	15.92433179996442	stim	174		2	ambiguous	ambiguous	preferred	600.0		20.97040319989901	0.033427200047299266
1	15.95775900001172	stim	175		2	ambiguous	ambiguous	preferred	600.0		21.00383039994631	0.03336859995033592
1	15.991127599962056	stim	176		2	ambiguous	ambiguous	preferred	600.0		21.037198999896646	0.033658500062301755
1	16.024786100024357	stim	177		2	ambiguous	ambiguous	preferred	600.0		21.070857499958947	0.033201699960045516
1	16.057987799984403	stim	178		2	ambiguous	ambiguous	preferred	600.0		21.104059199918993	0.03363439999520779
1	16.09162219997961	stim	179		2	ambiguous	ambiguous	preferred	600.0		21.1376935999142	0.034987099934369326
1	16.12660929991398	stim	180		2	ambiguous	ambiguous	preferred	600.0		21.17268069984857	0.03328860003966838
1	16.15989789995365	stim	181		2	ambiguous	ambiguous	preferred	600.0		21.20596929988824	0.03190319996792823
1	16.191801099921577	stim	182		2	ambiguous	ambiguous	preferred	600.0		21.237872499856167	0.035108800046145916
1	16.226909899967723	stim	183		2	ambiguous	ambiguous	preferred	600.0		21.272981299902312	0.03342470002826303
1	16.260334599995986	stim	184		2	ambiguous	ambiguous	preferred	600.0		21.306405999930575	0.03321639995556325
1	16.29355099995155	stim	185		2	ambiguous	ambiguous	preferred	600.0		21.33962239988614	0.03314299997873604
1	16.326693999930285	stim	186		2	ambiguous	ambiguous	preferred	600.0		21.372765399864875	0.03425470006186515
1	16.36094869999215	stim	187		2	ambiguous	ambiguous	preferred	600.0		21.40702009992674	0.03282449999824166
1	16.39377319999039	stim	188		2	ambiguous	ambiguous	preferred	600.0		21.43984459992498	0.033148800022900105
1	16.426922000013292	stim	189		2	ambiguous	ambiguous	preferred	600.0		21.47299339994788	0.03313140000682324
1	16.460053400020115	stim	190		2	ambiguous	ambiguous	preferred	600.0		21.506124799954705	0.03335089993197471
1	16.49340429995209	stim	191		2	ambiguous	ambiguous	preferred	600.0		21.53947569988668	0.033305800054222345
1	16.526710100006312	stim	192		2	ambiguous	ambiguous	preferred	600.0		21.572781499940902	0.03331500000786036
1	16.560025100014172	stim	193		2	ambiguous	ambiguous	preferred	600.0		21.606096499948762	0.033366199932061136
1	16.593391299946234	stim	194		2	ambiguous	ambiguous	preferred	600.0		21.639462699880823	0.033519000047817826
1	16.62691029999405	stim	195		2	ambiguous	ambiguous	preferred	600.0		21.67298169992864	0.03377039998304099
1	16.660680699977092	stim	196		2	ambiguous	ambiguous	preferred	600.0		21.706752099911682	0.033191599999554455
1	16.693872299976647	stim	197		2	ambiguous	ambiguous	preferred	600.0		21.739943699911237	0.033628599951043725
1	16.72750089992769	stim	198		2	ambiguous	ambiguous	preferred	600.0		21.77357229986228	0.03332729998510331
1	16.760828199912794	stim	199		2	ambiguous	ambiguous	preferred	600.0		21.806899599847384	0.03330080001614988
1	16.794128999928944	stim	200		2	ambiguous	ambiguous	preferred	600.0		21.840200399863534	0.03334399999585003
1	16.827472999924794	stim	201		2	ambiguous	ambiguous	preferred	600.0		21.873544399859384	0.033609400037676096
1	16.86108239996247	stim	202		2	ambiguous	ambiguous	preferred	600.0		21.90715379989706	0.03354169998783618
1	16.894624099950306	stim	203		2	ambiguous	ambiguous	preferred	600.0		21.940695499884896	0.03395269997417927
1	16.928576799924485	stim	204		2	ambiguous	ambiguous	preferred	600.0		21.974648199859075	0.03335380007047206
1	16.961930599994957	stim	205		2	ambiguous	ambiguous	preferred	600.0		22.008001999929547	0.03333569993264973
1	16.995266299927607	stim	206		2	ambiguous	ambiguous	preferred	600.0		22.041337699862197	0.033325000084005296
1	17.028591300011612	stim	207		2	ambiguous	ambiguous	preferred	600.0		22.074662699946202	0.033481899998150766
1	17.062073200009763	stim	208		2	ambiguous	ambiguous	preferred	600.0		22.108144599944353	0.03317860001698136
1	17.095251800026745	stim	209		2	ambiguous	ambiguous	preferred	600.0		22.141323199961334	0.03335990000050515
1	17.12861170002725	stim	210		2	ambiguous	ambiguous	preferred	600.0		22.17468309996184	0.0333451998885721
1	17.161956899915822	stim	211		2	ambiguous	ambiguous	preferred	600.0		22.20802829985041	0.03345880005508661
1	17.19541569997091	stim	212		2	ambiguous	ambiguous	preferred	600.0		22.2414870999055	0.03315559995826334
1	17.228571299929172	stim	213		2	ambiguous	ambiguous	preferred	600.0		22.27464269986376	0.03371220000553876
1	17.26228349993471	stim	214		2	ambiguous	ambiguous	preferred	600.0		22.3083548998693	0.03344340005423874
1	17.29572689998895	stim	215		2	ambiguous	ambiguous	preferred	600.0		22.34179829992354	0.03333320003002882
1	17.329060100018978	stim	216		2	ambiguous	ambiguous	preferred	600.0		22.375131499953568	0.03400270000565797
1	17.363062800024636	stim	217		2	ambiguous	ambiguous	preferred	600.0		22.409134199959226	0.03345389990136027
1	17.396516699925996	stim	218		2	ambiguous	ambiguous	preferred	600.0		22.442588099860586	0.03414080000948161
1	17.430657499935478	stim	219		2	ambiguous	ambiguous	preferred	600.0		22.476728899870068	0.03344430006109178
1	17.46410179999657	stim	220		2	ambiguous	ambiguous	preferred	600.0		22.51017319993116	0.03328879992477596
1	17.497390599921346	stim	221		2	ambiguous	ambiguous	preferred	600.0		22.543461999855936	0.03337419999297708
1	17.530764799914323	stim	222		2	ambiguous	ambiguous	preferred	600.0		22.576836199848913	0.033320600050501525
1	17.564085399964824	stim	223		2	ambiguous	ambiguous	preferred	600.0		22.610156799899414	0.03335519996471703
1	17.59744059992954	stim	224		2	ambiguous	ambiguous	preferred	600.0		22.64351199986413	0.03377440001349896
1	17.63121499994304	stim	225		2	ambiguous	ambiguous	preferred	600.0		22.67728639987763	0.03388440003618598
1	17.665099399979226	stim	226		2	ambiguous	ambiguous	preferred	600.0		22.711170799913816	0.033079499960877
1	17.698178899940103	stim	227		2	ambiguous	ambiguous	preferred	600.0		22.744250299874693	0.03337760001886636
1	17.73155649995897	stim	228		2	ambiguous	ambiguous	preferred	600.0		22.77762789989356	0.03326299996115267
1	17.764819499920122	stim	229		2	ambiguous	ambiguous	preferred	600.0		22.810890899854712	0.03337800002191216
1	17.798197499942034	stim	230		2	ambiguous	ambiguous	preferred	600.0		22.844268899876624	0.03332240006420761
1	17.831519900006242	stim	231		2	ambiguous	ambiguous	preferred	600.0		22.877591299940832	0.03394679992925376
1	17.865466699935496	stim	232		2	ambiguous	ambiguous	preferred	600.0		22.911538099870086	0.03321010002400726
1	17.898676799959503	stim	233		2	ambiguous	ambiguous	preferred	600.0		22.944748199894093	0.033412700053304434
1	17.932089500012808	stim	234		2	ambiguous	ambiguous	preferred	600.0		22.978160899947397	0.03316679992713034
1	17.965256299939938	stim	235		2	ambiguous	ambiguous	preferred	600.0		23.011327699874528	0.03365580004174262
1	17.99891209998168	stim	236		2	ambiguous	ambiguous	preferred	600.0		23.04498349991627	0.033354499959386885
1	18.032266599941067	stim	237		2	ambiguous	ambiguous	preferred	600.0		23.078337999875657	0.033387099974788725
1	18.065653699915856	stim	238		2	ambiguous	ambiguous	preferred	600.0		23.111725099850446	0.03357470000628382
1	18.09922839992214	stim	239		2	ambiguous	ambiguous	preferred	600.0		23.14529979985673	0.03322199999820441
1	18.132450399920344	stim	240		2	ambiguous	ambiguous	preferred	600.0		23.178521799854934	0.03366410010494292
1	18.166114500025287	stim	241		2	ambiguous	ambiguous	preferred	600.0		23.212185899959877	0.03335349995177239
1	18.19946799997706	stim	242		2	ambiguous	ambiguous	preferred	600.0		23.24553939991165	0.033319200039841235
1	18.2327872000169	stim	243		2	ambiguous	ambiguous	preferred	600.0		23.27885859995149	0.03351269999984652
1	18.266299900016747	stim	244		2	ambiguous	ambiguous	preferred	600.0		23.312371299951337	0.033351399935781956
1	18.29965129995253	stim	245		2	ambiguous	ambiguous	preferred	600.0		23.34572269988712	0.03375549998600036
1	18.33340679993853	stim	246		2	ambiguous	ambiguous	preferred	600.0		23.37947819987312	0.04953289998229593
1	18.382939699920826	stim	247		2	ambiguous	ambiguous	preferred	600.0		23.429011099855416	0.033387600095011294
1	18.416327300015837	stim	248		2	ambiguous	ambiguous	preferred	600.0		23.462398699950427	0.03375259996391833
1	18.450079899979755	stim	249		2	ambiguous	ambiguous	preferred	600.0		23.496151299914345	0.034335299977101386
1	18.484415199956857	stim	250		2	ambiguous	ambiguous	preferred	600.0		23.530486599891447	0.03287690004799515
1	18.517292100004852	stim	251		2	ambiguous	ambiguous	preferred	600.0		23.56336349993944	0.03337560000363737
1	18.55066770000849	stim	252		2	ambiguous	ambiguous	preferred	600.0		23.59673909994308	0.033344299998134375
1	18.584012000006624	stim	253		2	ambiguous	ambiguous	preferred	600.0		23.630083399941213	0.03370299993548542
1	18.61771499994211	stim	254		2	ambiguous	ambiguous	preferred	600.0		23.6637863998767	0.03390060004312545
1	18.651615599985234	stim	255		2	ambiguous	ambiguous	preferred	600.0		23.697686999919824	0.033738299971446395
1	18.68535389995668	stim	256		2	ambiguous	ambiguous	preferred	600.0		23.73142529989127	0.03398619999643415
1	18.719340099953115	stim	257		2	ambiguous	ambiguous	preferred	600.0		23.765411499887705	0.0335966000566259
1	18.75293670000974	stim	258		2	ambiguous	ambiguous	preferred	600.0		23.79900809994433	0.03366079996339977
1	18.78659749997314	stim	259		2	ambiguous	ambiguous	preferred	600.0		23.83266889990773	0.033695499994792044
1	18.820292999967933	stim	260		2	ambiguous	ambiguous	preferred	600.0		23.866364399902523	0.033618499990552664
1	18.853911499958485	stim	261		2	ambiguous	ambiguous	preferred	600.0		23.899982899893075	0.033664099988527596
1	18.887575599947013	stim	262		2	ambiguous	ambiguous	preferred	600.0		23.933646999881603	0.034000799991190434
1	18.921576399938203	stim	263		2	ambiguous	ambiguous	preferred	600.0		23.967647799872793	0.05006170005071908
1	18.971638099988922	stim	264		2	ambiguous	ambiguous	preferred	600.0		24.017709499923512	0.03271259996108711
1	19.00435069995001	stim	265		2	ambiguous	ambiguous	preferred	600.0		24.0504220998846	0.0335352000547573
1	19.037885900004767	stim	266		2	ambiguous	ambiguous	preferred	600.0		24.083957299939357	0.03348959994036704
1	19.071375499945134	stim	267		2	ambiguous	ambiguous	preferred	600.0		24.117446899879724	0.0334297000663355
1	19.10480520001147	stim	268		2	ambiguous	ambiguous	preferred	600.0		24.15087659994606	0.03310809994582087
1	19.13791329995729	stim	269		2	ambiguous	ambiguous	preferred	600.0		24.18398469989188	0.0333986000623554
1	19.171311900019646	stim	270		2	ambiguous	ambiguous	preferred	600.0		24.217383299954236	0.033422599895857275
1	19.204734499915503	stim	271		2	ambiguous	ambiguous	preferred	600.0		24.250805899850093	0.03330790007021278
1	19.238042399985716	stim	272		2	ambiguous	ambiguous	preferred	600.0		24.284113799920306	0.03380570001900196
1	19.271848100004718	stim	273		2	ambiguous	ambiguous	preferred	600.0		24.317919499939308	0.03343790001235902
1	19.305286000017077	stim	274		2	ambiguous	ambiguous	preferred	600.0		24.351357399951667	0.03300419996958226
1	19.33829019998666	stim	275		2	ambiguous	ambiguous	preferred	600.0		24.38436159992125	0.03398379997815937
1	19.37227399996482	stim	276		2	ambiguous	ambiguous	preferred	600.0		24.418345399899408	0.03400430001784116
1	19.40627829998266	stim	277		2	ambiguous	ambiguous	preferred	600.0		24.45234969991725	0.033462899969890714
1	19.43974119995255	stim	278		2	ambiguous	ambiguous	preferred	600.0		24.48581259988714	0.03333790006581694
1	19.473079100018367	stim	279		2	ambiguous	ambiguous	preferred	600.0		24.519150499952957	0.03351679991465062
1	19.506595899933018	stim	280		2	ambiguous	ambiguous	preferred	600.0		24.552667299867608	0.03315200004726648
1	19.539747899980284	stim	281		2	ambiguous	ambiguous	preferred	600.0		24.585819299914874	0.03356320003513247
1	19.573311100015417	stim	282		2	ambiguous	ambiguous	preferred	600.0		24.619382499950007	0.03334500000346452
1	19.60665610001888	stim	283		2	ambiguous	ambiguous	preferred	600.0		24.65272749995347	0.03333030000794679
1	19.639986400026828	stim	284		2	ambiguous	ambiguous	preferred	600.0		24.686057799961418	0.033527799998410046
1	19.673514200025238	stim	285		2	ambiguous	ambiguous	preferred	600.0		24.719585599959828	0.03344009991269559
1	19.706954299937934	stim	286		2	ambiguous	ambiguous	preferred	600.0		24.753025699872524	0.033362100017257035
1	19.74031639995519	stim	287		2	ambiguous	ambiguous	preferred	600.0		24.78638779988978	0.0336403000401333
1	19.773956699995324	stim	288		2	ambiguous	ambiguous	preferred	600.0		24.820028099929914	0.03324749995954335
1	19.807204199954867	stim	289		2	ambiguous	ambiguous	preferred	600.0		24.853275599889457	0.03360910003539175
1	19.84081329999026	stim	290		2	ambiguous	ambiguous	preferred	600.0		24.88688469992485	0.03351219999603927
1	19.8743254999863	stim	291		2	ambiguous	ambiguous	preferred	600.0		24.92039689992089	0.03326229995582253
1	19.90758779994212	stim	292		2	ambiguous	ambiguous	preferred	600.0		24.95365919987671	0.03316780005116016
1	19.94075559999328	stim	293		2	ambiguous	ambiguous	preferred	600.0		24.98682699992787	0.03336979995947331
1	19.974125399952754	stim	294		2	ambiguous	ambiguous	preferred	600.0		25.020196799887344	0.03331079997587949
1	20.007436199928634	stim	295		2	ambiguous	ambiguous	preferred	600.0		25.053507599863224	0.033405199996195734
1	20.04084139992483	stim	296		2	ambiguous	ambiguous	preferred	600.0		25.08691279985942	0.033338700071908534
1	20.074180099996738	stim	297		2	ambiguous	ambiguous	preferred	600.0		25.120251499931328	0.03338689997326583
1	20.107566999970004	stim	298		2	ambiguous	ambiguous	preferred	600.0		25.153638399904594	0.03329289995599538
1	20.140859899926	stim	299		2	ambiguous	ambiguous	preferred	600.0		25.18693129986059	0.033328099991194904
1	20.174187999917194	stim	300		2	ambiguous	ambiguous	preferred	600.0		25.220259399851784	0.03336280002258718
1	20.20755079993978	stim	301		2	ambiguous	ambiguous	preferred	600.0		25.25362219987437	0.03343000006861985
1	20.2409808000084	stim	302		2	ambiguous	ambiguous	preferred	600.0		25.28705219994299	0.033327699988149107
1	20.27430849999655	stim	303		2	ambiguous	ambiguous	preferred	600.0		25.32037989993114	0.03340710001066327
1	20.307715600007214	stim	304		2	ambiguous	ambiguous	preferred	600.0		25.353786999941804	0.033560400013811886
1	20.341276000021026	stim	305		2	ambiguous	ambiguous	preferred	600.0		25.387347399955615	0.03303339995909482
1	20.37430939998012	stim	306		2	ambiguous	ambiguous	preferred	600.0		25.42038079991471	0.03338459995575249
1	20.407693999935873	stim	307		2	ambiguous	ambiguous	preferred	600.0		25.453765399870463	0.03344620007555932
1	20.441140200011432	stim	308		2	ambiguous	ambiguous	preferred	600.0		25.487211599946022	0.03339789994060993
1	20.474538099952042	stim	309		2	ambiguous	ambiguous	preferred	600.0		25.520609499886632	0.033446299959905446
1	20.507984399911948	stim	310		2	ambiguous	ambiguous	preferred	600.0		25.554055799846537	0.03366070007905364
1	20.541645099991	stim	311		2	ambiguous	ambiguous	preferred	600.0		25.58771649992559	0.034748599980957806
1	20.57639369997196	stim	312		2	ambiguous	ambiguous	preferred	600.0		25.62246509990655	0.03177710005547851
1	20.608170800027438	stim	313		2	ambiguous	ambiguous	preferred	600.0		25.654242199962027	0.0350412999978289
1	20.643212100025266	stim	314		2	ambiguous	ambiguous	preferred	600.0		25.689283499959856	0.03337169997394085
1	20.676583799999207	stim	315		2	ambiguous	ambiguous	preferred	600.0		25.722655199933797	0.03367939998861402
1	20.71026319998782	stim	316		2	ambiguous	ambiguous	preferred	600.0		25.75633459992241	0.033062799950130284
1	20.74332599993795	stim	317		2	ambiguous	ambiguous	preferred	600.0		25.78939739987254	0.03334660001564771
1	20.7766725999536	stim	318		2	ambiguous	ambiguous	preferred	600.0		25.82274399988819	0.0332740000449121
1	20.80994659999851	stim	319		2	ambiguous	ambiguous	preferred	600.0		25.8560179999331	0.0333518999395892
1	20.8432984999381	stim	320		2	ambiguous	ambiguous	preferred	600.0		25.88936989987269	0.03324580006301403
1	20.876544300001115	stim	321		2	ambiguous	ambiguous	preferred	600.0		25.922615699935704	0.03339769993908703
1	20.9099419999402	stim	322		2	ambiguous	ambiguous	preferred	600.0		25.95601339987479	0.033553900080733
1	20.943495900020935	stim	323		2	ambiguous	ambiguous	preferred	600.0		25.989567299955525	0.033184099942445755
1	20.97667999996338	stim	324		2	ambiguous	ambiguous	preferred	600.0		26.02275139989797	0.0332549000158906
1	21.00993489997927	stim	325		2	ambiguous	ambiguous	preferred	600.0		26.05600629991386	0.033680599997751415
1	21.043615499977022	stim	326		2	ambiguous	ambiguous	preferred	600.0		26.089686899911612	0.033298199996352196
1	21.076913699973375	stim	327		2	ambiguous	ambiguous	preferred	600.0		26.122985099907964	0.03351540002040565
1	21.11042909999378	stim	328		2	ambiguous	ambiguous	preferred	600.0		26.15650049992837	0.03342330001760274
1	21.143852400011383	stim	329		2	ambiguous	ambiguous	preferred	600.0		26.189923799945973	0.03339469991624355
1	21.177247099927627	stim	330		2	ambiguous	ambiguous	preferred	600.0		26.223318499862216	0.03377300000283867
1	21.211020099930465	stim	331		2	ambiguous	ambiguous	preferred	600.0		26.257091499865055	0.033579700044356287
1	21.24459979997482	stim	332		2	ambiguous	ambiguous	preferred	600.0		26.29067119990941	0.033391600009053946
1	21.277991399983875	stim	333		2	ambiguous	ambiguous	preferred	600.0		26.324062799918465	0.033975400030612946
1	21.31196680001449	stim	334		2	ambiguous	ambiguous	preferred	600.0		26.35803819994908	0.03354149998631328
1	21.3455083000008	stim	335		2	ambiguous	ambiguous	preferred	600.0		26.39157969993539	0.03340959991328418
1	21.378917899914086	stim	336		2	ambiguous	ambiguous	preferred	600.0		26.424989299848676	0.033436199999414384
1	21.4123540999135	stim	337		2	ambiguous	ambiguous	preferred	600.0		26.45842549984809	0.033291000057943165
1	21.445645099971443	stim	338		2	ambiguous	ambiguous	preferred	600.0		26.491716499906033	0.03405350004322827
1	21.47969860001467	stim	339		2	ambiguous	ambiguous	preferred	600.0		26.52576999994926	0.03381659998558462
1	21.513515200000256	stim	340		2	ambiguous	ambiguous	preferred	600.0		26.559586599934846	0.03289399994537234
1	21.54640919994563	stim	341		2	ambiguous	ambiguous	preferred	600.0		26.59248059988022	0.033270000014454126
1	21.579679199960083	stim	342		2	ambiguous	ambiguous	preferred	600.0		26.625750599894673	0.03335220005828887
1	21.61303140001837	stim	343		2	ambiguous	ambiguous	preferred	600.0		26.65910279995296	0.03332149994093925
1	21.64635289995931	stim	344		2	ambiguous	ambiguous	preferred	600.0		26.6924242998939	0.03334690001793206
1	21.679699799977243	stim	345		2	ambiguous	ambiguous	preferred	600.0		26.725771199911833	0.033378500025719404
1	21.713078300002962	stim	346		2	ambiguous	ambiguous	preferred	600.0		26.759149699937552	0.0335701999720186
1	21.74664849997498	stim	347		2	ambiguous	ambiguous	preferred	600.0		26.79271989990957	0.0340365000301972
1	21.780685000005178	stim	348		2	ambiguous	ambiguous	preferred	600.0		26.826756399939768	0.0330796999623999
1	21.813764699967578	stim	349		2	ambiguous	ambiguous	preferred	600.0		26.859836099902168	0.03328109998255968
1	21.847045799950138	stim	350		2	ambiguous	ambiguous	preferred	600.0		26.893117199884728	0.03373150003608316
1	21.88077729998622	stim	351		2	ambiguous	ambiguous	preferred	600.0		26.92684869992081	0.033992999931797385
1	21.91477029991802	stim	352		2	ambiguous	ambiguous	preferred	600.0		26.960841699852608	0.03397069999482483
1	21.948740999912843	stim	353		2	ambiguous	ambiguous	preferred	600.0		26.994812399847433	0.03348010010086
1	21.982221100013703	stim	354		2	ambiguous	ambiguous	preferred	600.0		27.028292499948293	0.03336249990388751
1	22.01558359991759	stim	355		2	ambiguous	ambiguous	preferred	600.0		27.06165499985218	0.033335600048303604
1	22.048919199965894	stim	356		2	ambiguous	ambiguous	preferred	600.0		27.094990599900484	0.033340999973006546
1	22.0822601999389	stim	357		2	ambiguous	ambiguous	preferred	600.0		27.12833159987349	0.03364160005003214
1	22.115901799988933	stim	358		2	ambiguous	ambiguous	preferred	600.0		27.161973199923523	0.03360409999731928
1	22.149505899986252	stim	359		2	ambiguous	ambiguous	preferred	600.0		27.195577299920842	0.03373190003912896
1	22.18323780002538	stim	360		2	ambiguous	ambiguous	preferred	600.0		27.22930919995997	0.03353249991778284
1	22.216770299943164	stim	361		2	ambiguous	ambiguous	preferred	600.0		27.262841699877754	0.03330640005879104
1	22.250076700001955	stim	362		2	ambiguous	ambiguous	preferred	600.0		27.296148099936545	0.033301100018434227
1	22.28337780002039	stim	363		2	ambiguous	ambiguous	preferred	600.0		27.32944919995498	0.033627199940383434
1	22.317004999960773	stim	364		2	ambiguous	ambiguous	preferred	600.0		27.363076399895363	0.033520500059239566
1	22.350525500020012	stim	365		2	ambiguous	ambiguous	preferred	600.0		27.396596899954602	0.0336323999799788
1	22.38415789999999	stim	366		2	ambiguous	ambiguous	preferred	600.0		27.43022929993458	0.03363969991914928
1	22.41779759991914	stim	367		2	ambiguous	ambiguous	preferred	600.0		27.46386899985373	0.033905800082720816
1	22.45170340000186	stim	368		2	ambiguous	ambiguous	preferred	600.0		27.49777479993645	0.033352999947965145
1	22.485056399949826	stim	369		2	ambiguous	ambiguous	preferred	600.0		27.531127799884416	0.03404729999601841
1	22.519103699945845	stim	370		2	ambiguous	ambiguous	preferred	600.0		27.565175099880435	0.03339380002580583
1	22.55249749997165	stim	371		2	ambiguous	ambiguous	preferred	600.0		27.59856889990624	0.033652300015091896
1	22.586149799986742	stim	372		2	ambiguous	ambiguous	preferred	600.0		27.632221199921332	0.03376729995943606
1	22.61991709994618	stim	373		2	ambiguous	ambiguous	preferred	600.0		27.66598849988077	0.03397029999177903
1	22.653887399937958	stim	374		2	ambiguous	ambiguous	preferred	600.0		27.699958799872547	0.033997700084000826
1	22.68788510002196	stim	375		2	ambiguous	ambiguous	preferred	600.0		27.733956499956548	0.0331658999202773
1	22.721050999942236	stim	376		2	ambiguous	ambiguous	preferred	600.0		27.767122399876826	0.033483500010333955
1	22.75453449995257	stim	377		2	ambiguous	ambiguous	preferred	600.0		27.80060589988716	0.03328400000464171
1	22.78781849995721	stim	378		2	ambiguous	ambiguous	preferred	600.0		27.8338898998918	0.033363700029440224
1	22.82118219998665	stim	379		2	ambiguous	ambiguous	preferred	600.0		27.86725359992124	0.033441999927163124
1	22.854624199913815	stim	380		2	ambiguous	ambiguous	preferred	600.0		27.900695599848405	0.03381870000157505
1	22.88844289991539	stim	381		2	ambiguous	ambiguous	preferred	600.0		27.93451429984998	0.03345670003909618
1	22.921899599954486	stim	382		2	ambiguous	ambiguous	preferred	600.0		27.967970999889076	0.03340379998553544
1	22.95530339994002	stim	383		2	ambiguous	ambiguous	preferred	600.0		28.00137479987461	0.033665900002233684
1	22.988969299942255	stim	384		2	ambiguous	ambiguous	preferred	600.0		28.035040699876845	0.033390299999155104
1	23.02235959994141	stim	385		2	ambiguous	ambiguous	preferred	600.0		28.068430999876	0.03345790004823357
1	23.055817499989644	stim	386		2	ambiguous	ambiguous	preferred	600.0		28.101888899924234	0.03345470002386719
1	23.08927220001351	stim	387		2	ambiguous	ambiguous	preferred	600.0		28.1353435999481	0.03346379997674376
1	23.122735999990255	stim	388		2	ambiguous	ambiguous	preferred	600.0		28.168807399924845	0.03352239995729178
1	23.156258399947546	stim	389		2	ambiguous	ambiguous	preferred	600.0		28.202329799882136	0.033171100076287985
1	23.189429500023834	stim	390		2	ambiguous	ambiguous	preferred	600.0		28.235500899958424	0.03364989999681711
1	23.22307940002065	stim	391		2	ambiguous	ambiguous	preferred	600.0		28.26915079995524	0.033415299956686795
1	23.25649469997734	stim	392		2	ambiguous	ambiguous	preferred	600.0		28.302566099911928	0.033526299986988306
1	23.290020999964327	stim	393		2	ambiguous	ambiguous	preferred	600.0		28.336092399898916	0.033354399958625436
1	23.323375399922952	stim	394		2	ambiguous	ambiguous	preferred	600.0		28.369446799857542	0.0335972000611946
1	23.356972599984147	stim	395		2	ambiguous	ambiguous	preferred	600.0		28.403043999918737	0.0332427000394091
1	23.390215300023556	stim	396		2	ambiguous	ambiguous	preferred	600.0		28.436286699958146	0.03352969989646226
1	23.423744999920018	stim	397		2	ambiguous	ambiguous	preferred	600.0		28.469816399854608	0.033438900019973516
1	23.45718389993999	stim	398		2	ambiguous	ambiguous	preferred	600.0		28.50325529987458	0.033430400071665645
1	23.490614300011657	stim	399		2	ambiguous	ambiguous	preferred	600.0		28.536685699946247	0.03322919993661344
1	23.52384349994827	stim	400		2	ambiguous	ambiguous	preferred	600.0		28.56991489988286	0.03373630007263273
1	23.557579800020903	stim	401		2	ambiguous	ambiguous	preferred	600.0		28.603651199955493	0.03335649997461587
1	23.59093629999552	stim	402		2	ambiguous	ambiguous	preferred	600.0		28.63700769993011	0.033446199959143996
1	23.624382499954663	stim	403		2	ambiguous	ambiguous	preferred	600.0		28.670453899889253	0.033464099979028106
1	23.65784659993369	stim	404		2	ambiguous	ambiguous	preferred	600.0		28.70391799986828	0.03350220003630966
1	23.69134879997	stim	405		2	ambiguous	ambiguous	preferred	600.0		28.73742019990459	0.033305800054222345
1	23.724654600024223	stim	406		2	ambiguous	ambiguous	preferred	600.0		28.770725999958813	0.03494489996228367
1	23.759599499986507	stim	407		2	ambiguous	ambiguous	preferred	600.0		28.805670899921097	0.033603499992750585
1	23.793202999979258	stim	408		2	ambiguous	ambiguous	preferred	600.0		28.839274399913847	0.033317800029180944
1	23.82652080000844	stim	409		2	ambiguous	ambiguous	preferred	600.0		28.87259219994303	0.03331219998653978
1	23.85983299999498	stim	410		2	ambiguous	ambiguous	preferred	600.0		28.905904399929568	0.033349899924360216
1	23.89318289991934	stim	411		2	ambiguous	ambiguous	preferred	600.0		28.93925429985393	0.033377000014297664
1	23.926559899933636	stim	412		2	ambiguous	ambiguous	preferred	600.0		28.972631299868226	0.033393100020475686
1	23.959952999954112	stim	413		2	ambiguous	ambiguous	preferred	600.0		29.0060243998887	0.03332429996225983
1	23.99327729991637	stim	414		2	ambiguous	ambiguous	preferred	600.0		29.03934869985096	0.033260000054724514
1	24.026537299971096	stim	415		2	ambiguous	ambiguous	preferred	600.0		29.072608699905686	0.034108899999409914
1	24.060646199970506	stim	416		2	ambiguous	ambiguous	preferred	600.0		29.106717599905096	0.03337029996328056
1	24.094016499933787	stim	417		2	ambiguous	ambiguous	preferred	600.0		29.140087899868377	0.033274500048719347
1	24.127290999982506	stim	418		2	ambiguous	ambiguous	preferred	600.0		29.173362399917096	0.03388270002324134
1	24.161173700005747	stim	419		2	ambiguous	ambiguous	preferred	600.0		29.207245099940337	0.033597399946302176
1	24.19477109995205	stim	420		2	ambiguous	ambiguous	preferred	600.0		29.24084249988664	0.03356320003513247
1	24.228334299987182	stim	421		2	ambiguous	ambiguous	preferred	600.0		29.274405699921772	0.03333589993417263
1	24.261670199921355	stim	422		2	ambiguous	ambiguous	preferred	600.0		29.307741599855945	0.033366700052283704
1	24.29503689997364	stim	423		2	ambiguous	ambiguous	preferred	600.0		29.341108299908228	0.03361889999359846
1	24.328655799967237	stim	424		2	ambiguous	ambiguous	preferred	600.0		29.374727199901827	0.034236100036650896
1	24.362891900003888	stim	425		2	ambiguous	ambiguous	preferred	600.0		29.408963299938478	0.03333929996006191
1	24.39623119996395	stim	426		2	ambiguous	ambiguous	preferred	600.0		29.44230259989854	0.033354699960909784
1	24.42958589992486	stim	427		2	ambiguous	ambiguous	preferred	600.0		29.47565729985945	0.03342100000008941
1	24.46300689992495	stim	428		2	ambiguous	ambiguous	preferred	600.0		29.50907829985954	0.03332980000413954
1	24.49633669992909	stim	429		2	ambiguous	ambiguous	preferred	600.0		29.542408099863678	0.03398410009685904
1	24.530320800025947	stim	430		2	ambiguous	ambiguous	preferred	600.0		29.576392199960537	0.03344969998579472
1	24.563770500011742	stim	431		2	ambiguous	ambiguous	preferred	600.0		29.609841899946332	0.03321289992891252
1	24.596983399940655	stim	432		2	ambiguous	ambiguous	preferred	600.0		29.643054799875244	0.03362860006745905
1	24.630612000008114	stim	433		2	ambiguous	ambiguous	preferred	600.0		29.676683399942704	0.03326990001369268
1	24.663881900021806	stim	434		2	ambiguous	ambiguous	preferred	600.0		29.709953299956396	0.03334319998975843
1	24.697225100011565	stim	435		2	ambiguous	ambiguous	preferred	600.0		29.743296499946155	0.033646199968643486
1	24.73087129998021	stim	436		2	ambiguous	ambiguous	preferred	600.0		29.776942699914798	0.03355870000086725
1	24.764429999981076	stim	437		2	ambiguous	ambiguous	preferred	600.0		29.810501399915665	0.03350340004544705
1	24.797933400026523	stim	438		2	ambiguous	ambiguous	preferred	600.0		29.844004799961112	0.033800399978645146
1	24.831733800005168	stim	439		2	ambiguous	ambiguous	preferred	600.0		29.877805199939758	0.033634799998253584
1	24.86536860000342	stim	440		2	ambiguous	ambiguous	preferred	600.0		29.91143999993801	0.03374029998667538
1	24.899108899990097	stim	441		2	ambiguous	ambiguous	preferred	600.0		29.945180299924687	0.03333280002698302
1	24.93244170001708	stim	442		2	ambiguous	ambiguous	preferred	600.0		29.97851309995167	0.03344689996447414
1	24.965888599981554	stim	443		2	ambiguous	ambiguous	preferred	600.0		30.011959999916144	0.033229899941943586
1	24.999118499923497	stim	444		2	ambiguous	ambiguous	preferred	600.0		30.045189899858087	0.03375400009099394
1	25.03287250001449	stim	445		2	ambiguous	ambiguous	preferred	600.0		30.07894389994908	0.033329600002616644
1	25.066202100017108	stim	446		2	ambiguous	ambiguous	preferred	600.0		30.112273499951698	0.03335349995177239
1	25.09955559996888	stim	447		2	ambiguous	ambiguous	preferred	600.0		30.14562699990347	0.033585699973627925
1	25.13314129994251	stim	448		2	ambiguous	ambiguous	preferred	600.0		30.179212699877098	0.03356420004274696
1	25.166705499985255	stim	449		2	ambiguous	ambiguous	preferred	600.0		30.212776899919845	0.033735499950125813
1	25.20044099993538	stim	450		2	ambiguous	ambiguous	preferred	600.0		30.24651239986997	0.03353630006313324
1	25.233977299998514	stim	451		2	ambiguous	ambiguous	preferred	600.0		30.280048699933104	0.03389189997687936
1	25.267869199975394	stim	452		2	ambiguous	ambiguous	preferred	600.0		30.313940599909984	0.033317800029180944
1	25.301187000004575	stim	453		2	ambiguous	ambiguous	preferred	600.0		30.347258399939165	0.03401499998290092
1	25.335201999987476	stim	454		2	ambiguous	ambiguous	preferred	600.0		30.381273399922065	0.033821600023657084
1	25.369023600011133	stim	455		2	ambiguous	ambiguous	preferred	600.0		30.415094999945723	0.03337429999373853
1	25.40239790000487	stim	456		2	ambiguous	ambiguous	preferred	600.0		30.44846929993946	0.03367029991932213
1	25.436068199924193	stim	457		2	ambiguous	ambiguous	preferred	600.0		30.482139599858783	0.03388780006207526
1	25.46995599998627	stim	458		2	ambiguous	ambiguous	preferred	600.0		30.51602739992086	0.03341299993917346
1	25.503368999925442	stim	459		2	ambiguous	ambiguous	preferred	600.0		30.549440399860032	0.033778300043195486
1	25.537147299968638	stim	460		2	ambiguous	ambiguous	preferred	600.0		30.583218699903227	0.03337329998612404
1	25.57052059995476	stim	461		2	ambiguous	ambiguous	preferred	600.0		30.61659199988935	0.03321999998297542
1	25.603740599937737	stim	462		2	ambiguous	ambiguous	preferred	600.0		30.649811999872327	0.033591800020076334
1	25.637332399957813	stim	463		2	ambiguous	ambiguous	preferred	600.0		30.683403799892403	0.03345960006117821
1	25.67079200001899	stim	464		2	ambiguous	ambiguous	preferred	600.0		30.71686339995358	0.03339359990786761
1	25.70418559992686	stim	465		2	ambiguous	ambiguous	preferred	600.0		30.75025699986145	0.033486400032415986
1	25.737671999959275	stim	466		2	ambiguous	ambiguous	preferred	600.0		30.783743399893865	0.033657000050880015
1	25.771329000010155	stim	467		2	ambiguous	ambiguous	preferred	600.0		30.817400399944745	0.03297179995570332
1	25.80430079996586	stim	468		2	ambiguous	ambiguous	preferred	600.0		30.85037219990045	0.03363690001424402
1	25.837937699980102	stim	469		2	ambiguous	ambiguous	preferred	600.0		30.884009099914692	0.03335949999745935
1	25.871297199977562	stim	470		2	ambiguous	ambiguous	preferred	600.0		30.91736859991215	0.03387539996765554
1	25.905172599945217	stim	471		2	ambiguous	ambiguous	preferred	600.0		30.951243999879807	0.03398950002156198
1	25.93916209996678	stim	472		2	ambiguous	ambiguous	preferred	600.0		30.98523349990137	0.03356150002218783
1	25.972723599988967	stim	473		2	ambiguous	ambiguous	preferred	600.0		31.018794999923557	0.03352469997480512
1	26.006248299963772	stim	474		2	ambiguous	ambiguous	preferred	600.0		31.052319699898362	0.0334961999906227
1	26.039744499954395	stim	475		2	ambiguous	ambiguous	preferred	600.0		31.085815899888985	0.03326479997485876
1	26.073009299929254	stim	476		2	ambiguous	ambiguous	preferred	600.0		31.119080699863844	0.033585200086236
1	26.10659450001549	stim	477		2	ambiguous	ambiguous	preferred	600.0		31.15266589995008	0.03333619993645698
1	26.139930699951947	stim	478		2	ambiguous	ambiguous	preferred	600.0		31.186002099886537	0.03373290004674345
1	26.17366359999869	stim	479		2	ambiguous	ambiguous	preferred	600.0		31.21973499993328	0.033132300013676286
1	26.206795900012366	stim	480		2	ambiguous	ambiguous	preferred	600.0		31.252867299946956	0.03361609997227788
1	26.240411999984644	stim	481		2	ambiguous	ambiguous	preferred	600.0		31.286483399919234	0.033052399987354875
1	26.273464399972	stim	482		2	ambiguous	ambiguous	preferred	600.0		31.31953579990659	0.03379360004328191
1	26.30725800001528	stim	483		2	ambiguous	ambiguous	preferred	600.0		31.35332939994987	0.033318899921141565
1	26.340576899936423	stim	484		2	ambiguous	ambiguous	preferred	600.0		31.386648299871013	0.03343720000702888
1	26.37401409994345	stim	485		2	ambiguous	ambiguous	preferred	600.0		31.42008549987804	0.033309899969026446
1	26.407323999912478	stim	486		2	ambiguous	ambiguous	preferred	600.0		31.453395399847068	0.03328610002063215
1	26.44061009993311	stim	487		2	ambiguous	ambiguous	preferred	600.0		31.4866814998677	0.03386930003762245
1	26.474479399970733	stim	488		2	ambiguous	ambiguous	preferred	600.0		31.520550799905322	0.03496780002024025
1	26.509447199990973	stim	489		2	ambiguous	ambiguous	preferred	600.0		31.555518599925563	0.03179859998635948
1	26.541245799977332	stim	490		2	ambiguous	ambiguous	preferred	600.0		31.587317199911922	0.03504340001381934
1	26.57628919999115	stim	491		2	ambiguous	ambiguous	preferred	600.0		31.62236059992574	0.03357359999790788
1	26.60986279998906	stim	492		2	ambiguous	ambiguous	preferred	600.0		31.65593419992365	0.03333469992503524
1	26.643197499914095	stim	493		2	ambiguous	ambiguous	preferred	600.0		31.689268899848685	0.03351970005314797
1	26.676717199967243	stim	494		2	ambiguous	ambiguous	preferred	600.0		31.722788599901833	0.033107300056144595
1	26.709824500023387	stim	495		2	ambiguous	ambiguous	preferred	600.0		31.755895899957977	0.033361899899318814
1	26.743186399922706	stim	496		2	ambiguous	ambiguous	preferred	600.0		31.789257799857296	0.033609600039198995
1	26.776795999961905	stim	497		2	ambiguous	ambiguous	preferred	600.0		31.822867399896495	0.03298769996035844
1	26.809783699922264	stim	498		2	ambiguous	ambiguous	preferred	600.0		31.855855099856853	0.03335080004762858
1	26.843134499969892	stim	499		2	ambiguous	ambiguous	preferred	600.0		31.889205899904482	0.033415399957448244
1	26.87654989992734	stim	500		2	ambiguous	ambiguous	preferred	600.0		31.92262129986193	0.03371880005579442
1	26.910268699983135	stim	501		2	ambiguous	ambiguous	preferred	600.0		31.956340099917725	0.03389500000048429
1	26.94416369998362	stim	502		2	ambiguous	ambiguous	preferred	600.0		31.99023509991821	0.033652400015853345
1	26.977816099999472	stim	503		2	ambiguous	ambiguous	preferred	600.0		32.02388749993406	0.033200199948623776
1	27.011016299948096	stim	504		2	ambiguous	ambiguous	preferred	600.0		32.057087699882686	0.03346679999958724
1	27.044483099947684	stim	505		2	ambiguous	ambiguous	preferred	600.0		32.09055449988227	0.03331810003146529
1	27.07780119997915	stim	506		2	ambiguous	ambiguous	preferred	600.0		32.12387259991374	0.033309799968265
1	27.111110999947414	stim	507		2	ambiguous	ambiguous	preferred	600.0		32.157182399882004	0.03344709996599704
1	27.14455809991341	stim	508		2	ambiguous	ambiguous	preferred	600.0		32.190629499848	0.033497100113891065
1	27.178055200027302	stim	509		2	ambiguous	ambiguous	preferred	600.0		32.22412659996189	0.033504299935884774
1	27.211559499963187	stim	510		2	ambiguous	ambiguous	preferred	600.0		32.25763089989778	0.03336170001421124
1	27.244921199977398	stim	511		2	ambiguous	ambiguous	preferred	600.0		32.29099259991199	0.033613999956287444
1	27.278535199933685	stim	512		2	ambiguous	ambiguous	preferred	600.0		32.324606599868275	0.03330210002604872
1	27.311837299959734	stim	513		2	ambiguous	ambiguous	preferred	600.0		32.357908699894324	0.033744500018656254
1	27.34558179997839	stim	514		2	ambiguous	ambiguous	preferred	600.0		32.39165319991298	0.03381009993609041
1	27.37939189991448	stim	515		2	ambiguous	ambiguous	preferred	600.0		32.42546329984907	0.03323670011013746
1	27.412628600024618	stim	516		2	ambiguous	ambiguous	preferred	600.0		32.45869999995921	0.033764999941922724
1	27.44639359996654	stim	517		2	ambiguous	ambiguous	preferred	600.0		32.49246499990113	0.033299900009296834
1	27.479693499975838	stim	518		2	ambiguous	ambiguous	preferred	600.0		32.52576489991043	0.033320600050501525
1	27.51301410002634	stim	519		2	ambiguous	ambiguous	preferred	600.0		32.55908549996093	0.03383499989286065
1	27.5468490999192	stim	520		2	ambiguous	ambiguous	preferred	600.0		32.59292049985379	0.03367300005629659
1	27.580522099975497	stim	521		2	ambiguous	ambiguous	preferred	600.0		32.626593499910086	0.03316290001384914
1	27.613684999989346	stim	522		2	ambiguous	ambiguous	preferred	600.0		32.659756399923936	0.033330900012515485
1	27.64701590000186	stim	523		2	ambiguous	ambiguous	preferred	600.0		32.69308729993645	0.03332239994779229
1	27.680338299949653	stim	524		2	ambiguous	ambiguous	preferred	600.0		32.72640969988424	0.03364170005079359
1	27.713980000000447	stim	525		2	ambiguous	ambiguous	preferred	600.0		32.76005139993504	0.03333759994711727
1	27.747317599947564	stim	526		2	ambiguous	ambiguous	preferred	600.0		32.793388999882154	0.03390819998458028
1	27.781225799932145	stim	527		2	ambiguous	ambiguous	preferred	600.0		32.827297199866734	0.033325000084005296
1	27.81455080001615	stim	528		2	ambiguous	ambiguous	preferred	600.0		32.86062219995074	0.03373799996916205
1	27.848288799985312	stim	529		2	ambiguous	ambiguous	preferred	600.0		32.8943601999199	0.033782499958761036
1	27.882071299944073	stim	530		2	ambiguous	ambiguous	preferred	600.0		32.92814269987866	0.033261200063861907
1	27.915332500007935	stim	531		2	ambiguous	ambiguous	preferred	600.0		32.961403899942525	0.033341099973767996
1	27.948673599981703	stim	532		2	ambiguous	ambiguous	preferred	600.0		32.99474499991629	0.03368610003963113
1	27.982359700021334	stim	533		2	ambiguous	ambiguous	preferred	600.0		33.028431099955924	0.03299379989039153
1	28.015353499911726	stim	534		2	ambiguous	ambiguous	preferred	600.0		33.061424899846315	0.033710600109770894
1	28.049064100021496	stim	535		2	ambiguous	ambiguous	preferred	600.0		33.095135499956086	0.03334929991979152
1	28.082413399941288	stim	536		2	ambiguous	ambiguous	preferred	600.0		33.12848479987588	0.03362670005299151
1	28.11604009999428	stim	537		2	ambiguous	ambiguous	preferred	600.0		33.16211149992887	0.03395680000539869
1	28.149996899999678	stim	538		2	ambiguous	ambiguous	preferred	600.0		33.19606829993427	0.033784199971705675
1	28.183781099971384	stim	539		2	ambiguous	ambiguous	preferred	600.0		33.229852499905974	0.0331187000265345
1	28.21689979999792	stim	540		2	ambiguous	ambiguous	preferred	600.0		33.26297119993251	0.03327559994067997
1	28.2501753999386	stim	541		2	ambiguous	ambiguous	preferred	600.0		33.29624679987319	0.03336130001116544
1	28.283536699949764	stim	542		2	ambiguous	ambiguous	preferred	600.0		33.329608099884354	0.03367570007685572
1	28.31721240002662	stim	543		2	ambiguous	ambiguous	preferred	600.0		33.36328379996121	0.03370309993624687
1	28.350915499962866	stim	544		2	ambiguous	ambiguous	preferred	600.0		33.396986899897456	0.03365029999986291
1	28.38456579996273	stim	545		2	ambiguous	ambiguous	preferred	600.0		33.43063719989732	0.033135200035758317
1	28.417700999998488	stim	546		2	ambiguous	ambiguous	preferred	600.0		33.46377239993308	0.03369169996585697
1	28.451392699964345	stim	547		2	ambiguous	ambiguous	preferred	600.0		33.497464099898934	0.03390080004464835
1	28.485293500008993	stim	548		2	ambiguous	ambiguous	preferred	600.0		33.53136489994358	0.033335199928842485
1	28.518628699937835	stim	549		2	ambiguous	ambiguous	preferred	600.0		33.564700099872425	0.03333200002089143
1	28.551960699958727	stim	550		2	ambiguous	ambiguous	preferred	600.0		33.59803209989332	0.03350899997167289
1	28.5854696999304	stim	551		2	ambiguous	ambiguous	preferred	600.0		33.63154109986499	0.033299900009296834
1	28.618769599939696	stim	552		2	ambiguous	ambiguous	preferred	600.0		33.664840999874286	0.033716400037519634
1	28.652485999977216	stim	553		2	ambiguous	ambiguous	preferred	600.0		33.698557399911806	0.0340297999791801
1	28.686515799956396	stim	554		2	ambiguous	ambiguous	preferred	600.0		33.732587199890986	0.033350300043821335
1	28.719866100000218	stim	555		2	ambiguous	ambiguous	preferred	600.0		33.76593749993481	0.03394350002054125
1	28.75380960002076	stim	556		2	ambiguous	ambiguous	preferred	600.0		33.79988099995535	0.03375839989166707
1	28.787567999912426	stim	557		2	ambiguous	ambiguous	preferred	600.0		33.833639399847016	0.03317510010674596
1	28.820743100019172	stim	558		2	ambiguous	ambiguous	preferred	600.0		33.86681449995376	0.03356259991414845
1	28.85430569993332	stim	559		2	ambiguous	ambiguous	preferred	600.0		33.90037709986791	0.033412500051781535
1	28.887718199985102	stim	560		2	ambiguous	ambiguous	preferred	600.0		33.93378959991969	0.03379090002272278
1	28.921509100007825	stim	561		2	ambiguous	ambiguous	preferred	600.0		33.967580499942414	0.03326329996343702
1	28.95477239997126	stim	562		2	ambiguous	ambiguous	preferred	600.0		34.00084379990585	0.034031699993647635
1	28.98880409996491	stim	563		2	ambiguous	ambiguous	preferred	600.0		34.0348754998995	0.03317930002231151
1	29.02198339998722	stim	564		2	ambiguous	ambiguous	preferred	600.0		34.06805479992181	0.03326369996648282
1	29.055247099953704	stim	565		2	ambiguous	ambiguous	preferred	600.0		34.10131849988829	0.033664399990811944
1	29.088911499944516	stim	566		2	ambiguous	ambiguous	preferred	600.0		34.134982899879105	0.033348900033161044
1	29.122260399977677	stim	567		2	ambiguous	ambiguous	preferred	600.0		34.168331799912266	0.03352569998241961
1	29.155786099960096	stim	568		2	ambiguous	ambiguous	preferred	600.0		34.201857499894686	0.03370789997279644
1	29.189493999932893	stim	569		2	ambiguous	ambiguous	preferred	600.0		34.23556539986748	0.03302470000926405
1	29.222518699942157	stim	570		2	ambiguous	ambiguous	preferred	600.0		34.26859009987675	0.03364440007135272
1	29.25616310001351	stim	571		2	ambiguous	ambiguous	preferred	600.0		34.3022344999481	0.033440199913457036
1	29.289603299926966	stim	572		2	ambiguous	ambiguous	preferred	600.0		34.335674699861556	0.03332270006649196
1	29.32292599999346	stim	573		2	ambiguous	ambiguous	preferred	600.0		34.36899739992805	0.03338739997707307
1	29.35631339997053	stim	574		2	ambiguous	ambiguous	preferred	600.0		34.40238479990512	0.03346499998588115
1	29.389778399956413	stim	575		2	ambiguous	ambiguous	preferred	600.0		34.435849799891	0.03313210001215339
1	29.422910499968566	stim	576		2	ambiguous	ambiguous	preferred	600.0		34.468981899903156	0.03336170001421124
1	29.456272199982777	stim	577		2	ambiguous	ambiguous	preferred	600.0		34.50234359991737	0.03343529999256134
1	29.48970749997534	stim	578		2	ambiguous	ambiguous	preferred	600.0		34.53577889990993	0.03343089995905757
1	29.523138399934396	stim	579		2	ambiguous	ambiguous	preferred	600.0		34.569209799868986	0.03333970007952303
1	29.55647810001392	stim	580		2	ambiguous	ambiguous	preferred	600.0		34.60254949994851	0.03363389999140054
1	29.59011200000532	stim	581		2	ambiguous	ambiguous	preferred	600.0		34.63618339993991	0.033564999932423234
1	29.623676999937743	stim	582		2	ambiguous	ambiguous	preferred	600.0		34.66974839987233	0.033276300062425435
1	29.65695330000017	stim	583		2	ambiguous	ambiguous	preferred	600.0		34.70302469993476	0.0334451999515295
1	29.690398499951698	stim	584		2	ambiguous	ambiguous	preferred	600.0		34.73646989988629	0.0335276999976486
1	29.723926199949346	stim	585		2	ambiguous	ambiguous	preferred	600.0		34.769997599883936	0.033310199971310794
1	29.757236399920657	stim	586		2	ambiguous	ambiguous	preferred	600.0		34.80330779985525	0.03324540005996823
1	29.790481799980626	stim	587		2	ambiguous	ambiguous	preferred	600.0		34.836553199915215	0.033501200028695166
1	29.82398300000932	stim	588		2	ambiguous	ambiguous	preferred	600.0		34.87005439994391	0.033229899941943586
1	29.857212899951264	stim	589		2	ambiguous	ambiguous	preferred	600.0		34.903284299885854	0.03327660006470978
1	29.890489500015974	stim	590		2	ambiguous	ambiguous	preferred	600.0		34.936560899950564	0.03345769993029535
1	29.92394719994627	stim	591		2	ambiguous	ambiguous	preferred	600.0		34.97001859988086	0.03343579999636859
1	29.957382999942638	stim	592		2	ambiguous	ambiguous	preferred	600.0		35.00345439987723	0.0333240000763908
1	29.99070700001903	stim	593		2	ambiguous	ambiguous	preferred	600.0		35.03677839995362	0.03344139992259443
1	30.024148399941623	stim	594		2	ambiguous	ambiguous	preferred	600.0		35.07021979987621	0.03357960004359484
1	30.057727999985218	stim	595		2	ambiguous	ambiguous	preferred	600.0		35.10379939991981	0.0334840000141412
1	30.09121199999936	stim	596		2	ambiguous	ambiguous	preferred	600.0		35.13728339993395	0.033300000010058284
1	30.124512000009418	stim	597		2	ambiguous	ambiguous	preferred	600.0		35.17058339994401	0.03532839997205883
1	30.159840399981476	stim	598		2	ambiguous	ambiguous	preferred	600.0		35.205911799916066	0.033290699939243495
1	30.19313109992072	stim	599		2	ambiguous	ambiguous	preferred	600.0		35.23920249985531	0.03351340000517666
0	30.226644499925897	stim	0		357	break	break	preferred	1.0		35.272715899860486	6.047588400077075
