trial_nr	onset	event_type	phase	response	nr_frames	block_type	trial_type	block_ID	response_hand	phase_length	last_frame	key_duration	onset_abs	duration
0	0.012227000028360635	stim	0		0	ambiguous_practice	ambiguous_practice	0.0	preferred_right	300.0	0.0		4.995121200045105	2.6331794999423437
0	2.6454064999707043	ambiguous_practice	0	space	1	ambiguous_practice	ambiguous_practice	0.0	preferred_right	300.0	0.0	0.10554950003279373	7.628300699987449	-2.565846999932546
0	0.07955950003815815	stim	1		0	ambiguous_practice	ambiguous_practice	0.0	preferred_right	300.0	0.0		5.062453700054903	3.724355799960904
0	3.803915299999062	ambiguous_practice	1	space	2	ambiguous_practice	ambiguous_practice	0.0	preferred_right	300.0	0.0	0.09613469999749213	8.786809500015806	-3.674532899982296
0	0.12938240001676604	stim	2		2	ambiguous_practice	ambiguous_practice	0.0	preferred_right	300.0	0.0		5.1122766000335105	0.03327090002130717
0	0.1626533000380732	stim	3		2	ambiguous_practice	ambiguous_practice	0.0	preferred_right	300.0	0.0		5.145547500054818	0.03333309997105971
0	0.19598640000913292	stim	4		2	ambiguous_practice	ambiguous_practice	0.0	preferred_right	300.0	0.0		5.178880600025877	0.033110000018496066
0	0.229096400027629	stim	5		2	ambiguous_practice	ambiguous_practice	0.0	preferred_right	300.0	0.0		5.211990600044373	0.03350299998419359
0	0.2625994000118226	stim	6		2	ambiguous_practice	ambiguous_practice	0.0	preferred_right	300.0	0.0		5.245493600028567	0.033767900022212416
0	0.296367300034035	stim	7		2	ambiguous_practice	ambiguous_practice	0.0	preferred_right	300.0	0.0		5.279261500050779	0.03335779998451471
0	0.3297251000185497	stim	8		2	ambiguous_practice	ambiguous_practice	0.0	preferred_right	300.0	0.0		5.312619300035294	0.03346010000677779
0	0.3631852000253275	stim	9		2	ambiguous_practice	ambiguous_practice	0.0	preferred_right	300.0	0.0		5.346079400042072	0.03328609996242449
0	0.396471299987752	stim	10		2	ambiguous_practice	ambiguous_practice	0.0	preferred_right	300.0	0.0		5.379365500004496	0.03340270003536716
0	0.42987400002311915	stim	11		2	ambiguous_practice	ambiguous_practice	0.0	preferred_right	300.0	0.0		5.412768200039864	0.033711500000208616
0	0.46358550002332777	stim	12		2	ambiguous_practice	ambiguous_practice	0.0	preferred_right	300.0	0.0		5.446479700040072	0.033572299988009036
0	0.4971578000113368	stim	13		2	ambiguous_practice	ambiguous_practice	0.0	preferred_right	300.0	0.0		5.480052000028081	0.03364759997930378
0	0.5308053999906406	stim	14		2	ambiguous_practice	ambiguous_practice	0.0	preferred_right	300.0	0.0		5.513699600007385	0.03350600000703707
0	0.5643113999976777	stim	15		2	ambiguous_practice	ambiguous_practice	0.0	preferred_right	300.0	0.0		5.547205600014422	0.03316440002527088
0	0.5974758000229485	stim	16		2	ambiguous_practice	ambiguous_practice	0.0	preferred_right	300.0	0.0		5.580370000039693	0.033754599979147315
0	0.6312304000020958	stim	17		2	ambiguous_practice	ambiguous_practice	0.0	preferred_right	300.0	0.0		5.61412460001884	0.03352080000331625
0	0.6647512000054121	stim	18		2	ambiguous_practice	ambiguous_practice	0.0	preferred_right	300.0	0.0		5.6476454000221565	0.03567740001017228
0	0.7004286000155844	stim	19		2	ambiguous_practice	ambiguous_practice	0.0	preferred_right	300.0	0.0		5.683322800032329	0.05026079999515787
0	0.7506894000107422	stim	20		2	ambiguous_practice	ambiguous_practice	0.0	preferred_right	300.0	0.0		5.733583600027487	0.03357939998386428
0	0.7842687999946065	stim	21		2	ambiguous_practice	ambiguous_practice	0.0	preferred_right	300.0	0.0		5.767163000011351	0.04935829999158159
0	0.8336270999861881	stim	22		2	ambiguous_practice	ambiguous_practice	0.0	preferred_right	300.0	0.0		5.8165213000029325	0.03428840002743527
0	0.8679155000136234	stim	23		2	ambiguous_practice	ambiguous_practice	0.0	preferred_right	300.0	0.0		5.850809700030368	0.04971280001336709
0	0.9176283000269905	stim	24		2	ambiguous_practice	ambiguous_practice	0.0	preferred_right	300.0	0.0		5.900522500043735	0.049308499961625785
0	0.9669367999886163	stim	25		2	ambiguous_practice	ambiguous_practice	0.0	preferred_right	300.0	0.0		5.949831000005361	0.03385659999912605
0	1.0007933999877423	stim	26		2	ambiguous_practice	ambiguous_practice	0.0	preferred_right	300.0	0.0		5.983687600004487	0.03367350000189617
0	1.0344668999896385	stim	27		2	ambiguous_practice	ambiguous_practice	0.0	preferred_right	300.0	0.0		6.017361100006383	0.03350030002184212
0	1.0679672000114806	stim	28		2	ambiguous_practice	ambiguous_practice	0.0	preferred_right	300.0	0.0		6.050861400028225	0.032846399990376085
0	1.1008136000018567	stim	29		2	ambiguous_practice	ambiguous_practice	0.0	preferred_right	300.0	0.0		6.083707800018601	0.03298389998963103
0	1.1337974999914877	stim	30		2	ambiguous_practice	ambiguous_practice	0.0	preferred_right	300.0	0.0		6.116691700008232	0.03362790000392124
0	1.167425399995409	stim	31		2	ambiguous_practice	ambiguous_practice	0.0	preferred_right	300.0	0.0		6.150319600012153	0.033671799988951534
0	1.2010971999843605	stim	32		2	ambiguous_practice	ambiguous_practice	0.0	preferred_right	300.0	0.0		6.183991400001105	0.0332483000238426
0	1.234345500008203	stim	33		2	ambiguous_practice	ambiguous_practice	0.0	preferred_right	300.0	0.0		6.2172397000249475	0.03322949999710545
0	1.2675750000053085	stim	34		2	ambiguous_practice	ambiguous_practice	0.0	preferred_right	300.0	0.0		6.250469200022053	0.03393269999651238
0	1.301507700001821	stim	35		2	ambiguous_practice	ambiguous_practice	0.0	preferred_right	300.0	0.0		6.284401900018565	0.03280739998444915
0	1.33431509998627	stim	36		2	ambiguous_practice	ambiguous_practice	0.0	preferred_right	300.0	0.0		6.3172093000030145	0.033224500017240644
0	1.3675396000035107	stim	37		2	ambiguous_practice	ambiguous_practice	0.0	preferred_right	300.0	0.0		6.350433800020255	0.03254630003357306
0	1.4000859000370838	stim	38		2	ambiguous_practice	ambiguous_practice	0.0	preferred_right	300.0	0.0		6.382980100053828	0.03368969995062798
0	1.4337755999877118	stim	39		2	ambiguous_practice	ambiguous_practice	0.0	preferred_right	300.0	0.0		6.416669800004456	0.03388600004836917
0	1.467661600036081	stim	40		2	ambiguous_practice	ambiguous_practice	0.0	preferred_right	300.0	0.0		6.450555800052825	0.049138000002130866
0	1.5167996000382118	stim	41		2	ambiguous_practice	ambiguous_practice	0.0	preferred_right	300.0	0.0		6.499693800054956	0.033716199977789074
0	1.5505158000160009	stim	42		2	ambiguous_practice	ambiguous_practice	0.0	preferred_right	300.0	0.0		6.533410000032745	0.03304529999149963
0	1.5835611000075005	stim	43		2	ambiguous_practice	ambiguous_practice	0.0	preferred_right	300.0	0.0		6.566455300024245	0.03367400000570342
0	1.617235100013204	stim	44		2	ambiguous_practice	ambiguous_practice	0.0	preferred_right	300.0	0.0		6.600129300029948	0.03378449997399002
0	1.651019599987194	stim	45		2	ambiguous_practice	ambiguous_practice	0.0	preferred_right	300.0	0.0		6.633913800003938	0.032981400028802454
0	1.6840010000159964	stim	46		2	ambiguous_practice	ambiguous_practice	0.0	preferred_right	300.0	0.0		6.666895200032741	0.034165100019890815
0	1.7181661000358872	stim	47		2	ambiguous_practice	ambiguous_practice	0.0	preferred_right	300.0	0.0		6.701060300052632	0.04999769997084513
0	1.7681638000067323	stim	48		2	ambiguous_practice	ambiguous_practice	0.0	preferred_right	300.0	0.0		6.751058000023477	0.033490800007712096
0	1.8016546000144444	stim	49		2	ambiguous_practice	ambiguous_practice	0.0	preferred_right	300.0	0.0		6.784548800031189	0.03312560002086684
0	1.8347802000353113	stim	50		2	ambiguous_practice	ambiguous_practice	0.0	preferred_right	300.0	0.0		6.817674400052056	0.03387839999049902
0	1.8686586000258103	stim	51		2	ambiguous_practice	ambiguous_practice	0.0	preferred_right	300.0	0.0		6.851552800042555	0.03322739998111501
0	1.9018860000069253	stim	52		2	ambiguous_practice	ambiguous_practice	0.0	preferred_right	300.0	0.0		6.88478020002367	0.032984099991153926
0	1.9348700999980792	stim	53		2	ambiguous_practice	ambiguous_practice	0.0	preferred_right	300.0	0.0		6.917764300014824	0.03393480001250282
0	1.968804900010582	stim	54		2	ambiguous_practice	ambiguous_practice	0.0	preferred_right	300.0	0.0		6.9516991000273265	0.032985900004860014
0	2.001790800015442	stim	55		2	ambiguous_practice	ambiguous_practice	0.0	preferred_right	300.0	0.0		6.9846850000321865	0.03338609996717423
0	2.0351768999826163	stim	56		2	ambiguous_practice	ambiguous_practice	0.0	preferred_right	300.0	0.0		7.018071099999361	0.0332918000058271
0	2.0684686999884434	stim	57		2	ambiguous_practice	ambiguous_practice	0.0	preferred_right	300.0	0.0		7.051362900005188	0.03341480001108721
0	2.1018834999995306	stim	58		2	ambiguous_practice	ambiguous_practice	0.0	preferred_right	300.0	0.0		7.084777700016275	0.033667100011371076
0	2.1355506000109017	stim	59		2	ambiguous_practice	ambiguous_practice	0.0	preferred_right	300.0	0.0		7.118444800027646	0.0331863000174053
0	2.168736900028307	stim	60		2	ambiguous_practice	ambiguous_practice	0.0	preferred_right	300.0	0.0		7.151631100045051	0.04973609995795414
0	2.218472999986261	stim	61		2	ambiguous_practice	ambiguous_practice	0.0	preferred_right	300.0	0.0		7.201367200003006	0.03357780002988875
0	2.25205080001615	stim	62		2	ambiguous_practice	ambiguous_practice	0.0	preferred_right	300.0	0.0		7.234945000032894	0.033772199996747077
0	2.285823000012897	stim	63		2	ambiguous_practice	ambiguous_practice	0.0	preferred_right	300.0	0.0		7.268717200029641	0.03353590000187978
0	2.3193589000147767	stim	64		2	ambiguous_practice	ambiguous_practice	0.0	preferred_right	300.0	0.0		7.302253100031521	0.03307629999471828
0	2.352435200009495	stim	65		2	ambiguous_practice	ambiguous_practice	0.0	preferred_right	300.0	0.0		7.3353294000262395	0.03389640001114458
0	2.3863316000206396	stim	66		2	ambiguous_practice	ambiguous_practice	0.0	preferred_right	300.0	0.0		7.369225800037384	0.03356129996245727
0	2.419892899983097	stim	67		2	ambiguous_practice	ambiguous_practice	0.0	preferred_right	300.0	0.0		7.402787099999841	0.03371580003295094
0	2.453608700016048	stim	68		2	ambiguous_practice	ambiguous_practice	0.0	preferred_right	300.0	0.0		7.436502900032792	0.04957189998822287
0	2.5031806000042707	stim	69		2	ambiguous_practice	ambiguous_practice	0.0	preferred_right	300.0	0.0		7.486074800021015	0.03361759998369962
0	2.5367981999879703	stim	70		2	ambiguous_practice	ambiguous_practice	0.0	preferred_right	300.0	0.0		7.519692400004715	0.03365759999724105
0	2.5704557999852113	stim	71		2	ambiguous_practice	ambiguous_practice	0.0	preferred_right	300.0	0.0		7.553350000001956	0.033202100021298975
0	2.6036579000065103	stim	72		2	ambiguous_practice	ambiguous_practice	0.0	preferred_right	300.0	0.0		7.586552100023255	0.03387570002814755
0	2.637533600034658	stim	73		2	ambiguous_practice	ambiguous_practice	0.0	preferred_right	300.0	0.0		7.620427800051402	0.03336079994915053
0	2.6708943999838084	stim	74		2	ambiguous_practice	ambiguous_practice	0.0	preferred_right	300.0	0.0		7.653788600000553	0.05036750005092472
0	2.721261900034733	stim	75		2	ambiguous_practice	ambiguous_practice	0.0	preferred_right	300.0	0.0		7.7041561000514776	0.03312129998812452
0	2.7543832000228576	stim	76		2	ambiguous_practice	ambiguous_practice	0.0	preferred_right	300.0	0.0		7.737277400039602	0.03336180001497269
0	2.7877450000378303	stim	77		2	ambiguous_practice	ambiguous_practice	0.0	preferred_right	300.0	0.0		7.770639200054575	0.05003179999766871
0	2.837776800035499	stim	78		2	ambiguous_practice	ambiguous_practice	0.0	preferred_right	300.0	0.0		7.8206710000522435	0.034082199970725924
0	2.871859000006225	stim	79		2	ambiguous_practice	ambiguous_practice	0.0	preferred_right	300.0	0.0		7.854753200022969	0.04930640000384301
0	2.921165400010068	stim	80		2	ambiguous_practice	ambiguous_practice	0.0	preferred_right	300.0	0.0		7.904059600026812	0.03367779997643083
0	2.954843199986499	stim	81		2	ambiguous_practice	ambiguous_practice	0.0	preferred_right	300.0	0.0		7.937737400003243	0.03341140004340559
0	2.9882546000299044	stim	82		2	ambiguous_practice	ambiguous_practice	0.0	preferred_right	300.0	0.0		7.971148800046649	0.033421300002373755
0	3.021675900032278	stim	83		2	ambiguous_practice	ambiguous_practice	0.0	preferred_right	300.0	0.0		8.004570100049023	0.04962069995235652
0	3.0712965999846347	stim	84		2	ambiguous_practice	ambiguous_practice	0.0	preferred_right	300.0	0.0		8.054190800001379	0.03375580004649237
0	3.105052400031127	stim	85		2	ambiguous_practice	ambiguous_practice	0.0	preferred_right	300.0	0.0		8.087946600047871	0.049732199986465275
0	3.1547846000175923	stim	86		2	ambiguous_practice	ambiguous_practice	0.0	preferred_right	300.0	0.0		8.137678800034337	0.03324149997206405
0	3.1880260999896564	stim	87		2	ambiguous_practice	ambiguous_practice	0.0	preferred_right	300.0	0.0		8.1709203000064	0.03384170000208542
0	3.2218677999917418	stim	88		2	ambiguous_practice	ambiguous_practice	0.0	preferred_right	300.0	0.0		8.204762000008486	0.03326330002164468
0	3.2551311000133865	stim	89		2	ambiguous_practice	ambiguous_practice	0.0	preferred_right	300.0	0.0		8.238025300030131	0.032701599993743
0	3.2878327000071295	stim	90		2	ambiguous_practice	ambiguous_practice	0.0	preferred_right	300.0	0.0		8.270726900023874	0.03405190003104508
0	3.3218846000381745	stim	91		2	ambiguous_practice	ambiguous_practice	0.0	preferred_right	300.0	0.0		8.304778800054919	0.0332602999988012
0	3.3551449000369757	stim	92		2	ambiguous_practice	ambiguous_practice	0.0	preferred_right	300.0	0.0		8.33803910005372	0.03344699996523559
0	3.3885919000022113	stim	93		2	ambiguous_practice	ambiguous_practice	0.0	preferred_right	300.0	0.0		8.371486100018956	0.033289399987552315
0	3.4218812999897636	stim	94		2	ambiguous_practice	ambiguous_practice	0.0	preferred_right	300.0	0.0		8.404775500006508	0.0333733000443317
0	3.4552546000340953	stim	95		2	ambiguous_practice	ambiguous_practice	0.0	preferred_right	300.0	0.0		8.43814880005084	0.03339519997825846
0	3.488649800012354	stim	96		2	ambiguous_practice	ambiguous_practice	0.0	preferred_right	300.0	0.0		8.471544000029098	0.03386530000716448
0	3.5225151000195183	stim	97		2	ambiguous_practice	ambiguous_practice	0.0	preferred_right	300.0	0.0		8.505409300036263	0.03291329997591674
0	3.555428399995435	stim	98		2	ambiguous_practice	ambiguous_practice	0.0	preferred_right	300.0	0.0		8.53832260001218	0.03374210000038147
0	3.5891704999958165	stim	99		2	ambiguous_practice	ambiguous_practice	0.0	preferred_right	300.0	0.0		8.572064700012561	0.033513100002892315
0	3.622683599998709	stim	100		2	ambiguous_practice	ambiguous_practice	0.0	preferred_right	300.0	0.0		8.605577800015453	0.03324180003255606
0	3.655925400031265	stim	101		2	ambiguous_practice	ambiguous_practice	0.0	preferred_right	300.0	0.0		8.63881960004801	0.03346329997293651
0	3.6893887000042014	stim	102		2	ambiguous_practice	ambiguous_practice	0.0	preferred_right	300.0	0.0		8.672282900020946	0.033250899985432625
0	3.722639599989634	stim	103		2	ambiguous_practice	ambiguous_practice	0.0	preferred_right	300.0	0.0		8.705533800006378	0.03390850004507229
0	3.7565481000347063	stim	104		2	ambiguous_practice	ambiguous_practice	0.0	preferred_right	300.0	0.0		8.73944230005145	0.0330425999709405
0	3.789590700005647	stim	105		2	ambiguous_practice	ambiguous_practice	0.0	preferred_right	300.0	0.0		8.772484900022391	0.03424020000966266
0	3.8238309000153095	stim	106		2	ambiguous_practice	ambiguous_practice	0.0	preferred_right	300.0	0.0		8.806725100032054	0.0502188999671489
0	3.8740497999824584	stim	107		2	ambiguous_practice	ambiguous_practice	0.0	preferred_right	300.0	0.0		8.856943999999203	0.05074100004276261
0	3.924790800025221	stim	108		2	ambiguous_practice	ambiguous_practice	0.0	preferred_right	300.0	0.0		8.907685000041965	0.0509759999695234
0	3.9757667999947444	stim	109		2	ambiguous_practice	ambiguous_practice	0.0	preferred_right	300.0	0.0		8.958661000011489	0.04806609998922795
0	4.023832899983972	stim	110		2	ambiguous_practice	ambiguous_practice	0.0	preferred_right	300.0	0.0		9.006727100000717	0.04972280003130436
0	4.073555700015277	stim	111		2	ambiguous_practice	ambiguous_practice	0.0	preferred_right	300.0	0.0		9.056449900032021	0.050609299971256405
0	4.124164999986533	stim	112		2	ambiguous_practice	ambiguous_practice	0.0	preferred_right	300.0	0.0		9.107059200003278	0.049881900020409375
0	4.1740469000069425	stim	113		2	ambiguous_practice	ambiguous_practice	0.0	preferred_right	300.0	0.0		9.156941100023687	0.050400500011164695
0	4.224447400018107	stim	114		2	ambiguous_practice	ambiguous_practice	0.0	preferred_right	300.0	0.0		9.207341600034852	0.050118900020606816
0	4.274566300038714	stim	115		2	ambiguous_practice	ambiguous_practice	0.0	preferred_right	300.0	0.0		9.257460500055458	0.04995919996872544
0	4.324525500007439	stim	116		2	ambiguous_practice	ambiguous_practice	0.0	preferred_right	300.0	0.0		9.307419700024184	0.05028010002570227
0	4.374805600033142	stim	117		2	ambiguous_practice	ambiguous_practice	0.0	preferred_right	300.0	0.0		9.357699800049886	0.05028579995268956
0	4.425091399985831	stim	118		2	ambiguous_practice	ambiguous_practice	0.0	preferred_right	300.0	0.0		9.407985600002576	0.050135200028307736
0	4.475226600014139	stim	119		2	ambiguous_practice	ambiguous_practice	0.0	preferred_right	300.0	0.0		9.458120800030883	0.050135399971622974
0	4.525361999985762	stim	120		2	ambiguous_practice	ambiguous_practice	0.0	preferred_right	300.0	0.0		9.508256200002506	0.049733699997887015
0	4.575095699983649	stim	121		2	ambiguous_practice	ambiguous_practice	0.0	preferred_right	300.0	0.0		9.557989900000393	0.05024280003271997
0	4.625338500016369	stim	122		2	ambiguous_practice	ambiguous_practice	0.0	preferred_right	300.0	0.0		9.608232700033113	0.05005489999894053
0	4.6753934000153095	stim	123		2	ambiguous_practice	ambiguous_practice	0.0	preferred_right	300.0	0.0		9.658287600032054	0.04984220000915229
0	4.725235600024462	stim	124		2	ambiguous_practice	ambiguous_practice	0.0	preferred_right	300.0	0.0		9.708129800041206	0.05148869997356087
0	4.776724299998023	stim	125		2	ambiguous_practice	ambiguous_practice	0.0	preferred_right	300.0	0.0		9.759618500014767	0.06592309998814017
0	4.842647399986163	stim	126		2	ambiguous_practice	ambiguous_practice	0.0	preferred_right	300.0	0.0		9.825541600002907	0.050086200004443526
0	4.892733599990606	stim	127		2	ambiguous_practice	ambiguous_practice	0.0	preferred_right	300.0	0.0		9.87562780000735	0.05051490000914782
0	4.943248499999754	stim	128		2	ambiguous_practice	ambiguous_practice	0.0	preferred_right	300.0	0.0		9.926142700016499	0.05106070003239438
0	4.9943092000321485	stim	129		2	ambiguous_practice	ambiguous_practice	0.0	preferred_right	300.0	0.0		9.977203400048893	0.048818099952768534
0	5.043127299984917	stim	130		2	ambiguous_practice	ambiguous_practice	0.0	preferred_right	300.0	0.0		10.026021500001661	0.06652839999878779
0	5.109655699983705	stim	131		2	ambiguous_practice	ambiguous_practice	0.0	preferred_right	300.0	0.0		10.09254990000045	0.06699220003793016
0	5.176647900021635	stim	132		2	ambiguous_practice	ambiguous_practice	0.0	preferred_right	300.0	0.0		10.15954210003838	0.049904400017112494
0	5.2265523000387475	stim	133		2	ambiguous_practice	ambiguous_practice	0.0	preferred_right	300.0	0.0		10.209446500055492	0.05014939996181056
0	5.276701700000558	stim	134		2	ambiguous_practice	ambiguous_practice	0.0	preferred_right	300.0	0.0		10.259595900017302	0.04987420001998544
0	5.3265759000205435	stim	135		2	ambiguous_practice	ambiguous_practice	0.0	preferred_right	300.0	0.0		10.309470100037288	0.0654979000100866
0	5.39207380003063	stim	136		2	ambiguous_practice	ambiguous_practice	0.0	preferred_right	300.0	0.0		10.374968000047375	0.050130899995565414
0	5.4422047000261955	stim	137		2	ambiguous_practice	ambiguous_practice	0.0	preferred_right	300.0	0.0		10.42509890004294	0.05107729998417199
0	5.4932820000103675	stim	138		2	ambiguous_practice	ambiguous_practice	0.0	preferred_right	300.0	0.0		10.476176200027112	0.0499526999774389
0	5.543234699987806	stim	139		2	ambiguous_practice	ambiguous_practice	0.0	preferred_right	300.0	0.0		10.52612890000455	0.05010370002128184
0	5.593338400009088	stim	140		2	ambiguous_practice	ambiguous_practice	0.0	preferred_right	300.0	0.0		10.576232600025833	0.06669669999973848
0	5.660035100008827	stim	141		2	ambiguous_practice	ambiguous_practice	0.0	preferred_right	300.0	0.0		10.642929300025571	0.049702499993145466
0	5.709737600001972	stim	142		2	ambiguous_practice	ambiguous_practice	0.0	preferred_right	300.0	0.0		10.692631800018717	0.05044989997986704
0	5.760187499981839	stim	143		2	ambiguous_practice	ambiguous_practice	0.0	preferred_right	300.0	0.0		10.743081699998584	0.05021060002036393
0	5.810398100002203	stim	144		2	ambiguous_practice	ambiguous_practice	0.0	preferred_right	300.0	0.0		10.793292300018948	0.049521700013428926
0	5.859919800015632	stim	145		2	ambiguous_practice	ambiguous_practice	0.0	preferred_right	300.0	0.0		10.842814000032376	0.049965100013650954
0	5.909884900029283	stim	146		2	ambiguous_practice	ambiguous_practice	0.0	preferred_right	300.0	0.0		10.892779100046027	0.04985599999781698
0	5.9597409000271	stim	147		2	ambiguous_practice	ambiguous_practice	0.0	preferred_right	300.0	0.0		10.942635100043844	0.050524899968877435
0	6.010265799995977	stim	148		2	ambiguous_practice	ambiguous_practice	0.0	preferred_right	300.0	0.0		10.993160000012722	0.04937010002322495
0	6.059635900019202	stim	149		2	ambiguous_practice	ambiguous_practice	0.0	preferred_right	300.0	0.0		11.042530100035947	0.04971819999627769
0	6.10935410001548	stim	150		2	ambiguous_practice	ambiguous_practice	0.0	preferred_right	300.0	0.0		11.092248300032225	0.05085770000005141
0	6.1602118000155315	stim	151		2	ambiguous_practice	ambiguous_practice	0.0	preferred_right	300.0	0.0		11.143106000032276	0.06749440002022311
0	6.227706200035755	stim	152		2	ambiguous_practice	ambiguous_practice	0.0	preferred_right	300.0	0.0		11.210600400052499	0.049330699956044555
0	6.277036899991799	stim	153		2	ambiguous_practice	ambiguous_practice	0.0	preferred_right	300.0	0.0		11.259931100008544	0.05050060001667589
0	6.327537500008475	stim	154		2	ambiguous_practice	ambiguous_practice	0.0	preferred_right	300.0	0.0		11.31043170002522	0.05016520002391189
0	6.377702700032387	stim	155		2	ambiguous_practice	ambiguous_practice	0.0	preferred_right	300.0	0.0		11.360596900049131	0.050421199994161725
0	6.428123900026549	stim	156		2	ambiguous_practice	ambiguous_practice	0.0	preferred_right	300.0	0.0		11.411018100043293	0.04962780000641942
0	6.477751700032968	stim	157		2	ambiguous_practice	ambiguous_practice	0.0	preferred_right	300.0	0.0		11.460645900049713	0.05006509996019304
0	6.527816799993161	stim	158		2	ambiguous_practice	ambiguous_practice	0.0	preferred_right	300.0	0.0		11.510711000009906	0.04988669999875128
0	6.577703499991912	stim	159		2	ambiguous_practice	ambiguous_practice	0.0	preferred_right	300.0	0.0		11.560597700008657	0.06773950002389029
0	6.645443000015803	stim	160		2	ambiguous_practice	ambiguous_practice	0.0	preferred_right	300.0	0.0		11.628337200032547	0.06615640001837164
0	6.711599400034174	stim	161		2	ambiguous_practice	ambiguous_practice	0.0	preferred_right	300.0	0.0		11.694493600050919	0.050019599962979555
0	6.761618999997154	stim	162		2	ambiguous_practice	ambiguous_practice	0.0	preferred_right	300.0	0.0		11.744513200013898	0.06653900002129376
0	6.828158000018448	stim	163		2	ambiguous_practice	ambiguous_practice	0.0	preferred_right	300.0	0.0		11.811052200035192	0.05029169999761507
0	6.878449700016063	stim	164		2	ambiguous_practice	ambiguous_practice	0.0	preferred_right	300.0	0.0		11.861343900032807	0.04979959997581318
0	6.928249299991876	stim	165		2	ambiguous_practice	ambiguous_practice	0.0	preferred_right	300.0	0.0		11.91114350000862	0.05028560000937432
0	6.97853490000125	stim	166		2	ambiguous_practice	ambiguous_practice	0.0	preferred_right	300.0	0.0		11.961429100017995	0.04916870000306517
0	7.027703600004315	stim	167		2	ambiguous_practice	ambiguous_practice	0.0	preferred_right	300.0	0.0		12.01059780002106	0.04961879999609664
0	7.077322400000412	stim	168		2	ambiguous_practice	ambiguous_practice	0.0	preferred_right	300.0	0.0		12.060216600017156	0.050314399995841086
0	7.127636799996253	stim	169		2	ambiguous_practice	ambiguous_practice	0.0	preferred_right	300.0	0.0		12.110531000012998	0.050079200009349734
0	7.177716000005603	stim	170		2	ambiguous_practice	ambiguous_practice	0.0	preferred_right	300.0	0.0		12.160610200022347	0.04998349997913465
0	7.2276994999847375	stim	171		2	ambiguous_practice	ambiguous_practice	0.0	preferred_right	300.0	0.0		12.210593700001482	0.050195900024846196
0	7.277895400009584	stim	172		2	ambiguous_practice	ambiguous_practice	0.0	preferred_right	300.0	0.0		12.260789600026328	0.05056589999003336
0	7.328461299999617	stim	173		2	ambiguous_practice	ambiguous_practice	0.0	preferred_right	300.0	0.0		12.311355500016361	0.049477300024591386
0	7.377938600024208	stim	174		2	ambiguous_practice	ambiguous_practice	0.0	preferred_right	300.0	0.0		12.360832800040953	0.033372199977748096
0	7.4113108000019565	stim	175		2	ambiguous_practice	ambiguous_practice	0.0	preferred_right	300.0	0.0		12.394205000018701	0.03332280000904575
0	7.444633600011002	stim	176		2	ambiguous_practice	ambiguous_practice	0.0	preferred_right	300.0	0.0		12.427527800027747	0.04992129997117445
0	7.494554899982177	stim	177		2	ambiguous_practice	ambiguous_practice	0.0	preferred_right	300.0	0.0		12.477449099998921	0.05026100005488843
0	7.544815900037065	stim	178		2	ambiguous_practice	ambiguous_practice	0.0	preferred_right	300.0	0.0		12.52771010005381	0.049847999995108694
0	7.594663900032174	stim	179		2	ambiguous_practice	ambiguous_practice	0.0	preferred_right	300.0	0.0		12.577558100048918	0.05013639997923747
0	7.644800300011411	stim	180		2	ambiguous_practice	ambiguous_practice	0.0	preferred_right	300.0	0.0		12.627694500028156	0.03437279997160658
0	7.679173099983018	stim	181		2	ambiguous_practice	ambiguous_practice	0.0	preferred_right	300.0	0.0		12.662067299999762	0.050009300000965595
0	7.7291823999839835	stim	182		2	ambiguous_practice	ambiguous_practice	0.0	preferred_right	300.0	0.0		12.712076600000728	0.05008290003752336
0	7.779265300021507	stim	183		2	ambiguous_practice	ambiguous_practice	0.0	preferred_right	300.0	0.0		12.762159500038251	0.05035360000329092
0	7.829618900024798	stim	184		2	ambiguous_practice	ambiguous_practice	0.0	preferred_right	300.0	0.0		12.812513100041542	0.05006579996552318
0	7.879684699990321	stim	185		2	ambiguous_practice	ambiguous_practice	0.0	preferred_right	300.0	0.0		12.862578900007065	0.05005419999361038
0	7.929738899983931	stim	186		2	ambiguous_practice	ambiguous_practice	0.0	preferred_right	300.0	0.0		12.912633100000676	0.05004010000266135
0	7.979778999986593	stim	187		2	ambiguous_practice	ambiguous_practice	0.0	preferred_right	300.0	0.0		12.962673200003337	0.05075680004665628
0	8.030535800033249	stim	188		2	ambiguous_practice	ambiguous_practice	0.0	preferred_right	300.0	0.0		13.013430000049993	0.050181199971120805
0	8.08071700000437	stim	189		2	ambiguous_practice	ambiguous_practice	0.0	preferred_right	300.0	0.0		13.063611200021114	0.04930579999927431
0	8.130022800003644	stim	190		2	ambiguous_practice	ambiguous_practice	0.0	preferred_right	300.0	0.0		13.112917000020389	0.034531000012066215
0	8.16455380001571	stim	191		2	ambiguous_practice	ambiguous_practice	0.0	preferred_right	300.0	0.0		13.147448000032455	0.05018740001833066
0	8.214741200034041	stim	192		2	ambiguous_practice	ambiguous_practice	0.0	preferred_right	300.0	0.0		13.197635400050785	0.05057629995280877
0	8.26531749998685	stim	193		2	ambiguous_practice	ambiguous_practice	0.0	preferred_right	300.0	0.0		13.248211700003594	0.04926620004698634
0	8.314583700033836	stim	194		2	ambiguous_practice	ambiguous_practice	0.0	preferred_right	300.0	0.0		13.29747790005058	0.04992859996855259
0	8.364512300002389	stim	195		2	ambiguous_practice	ambiguous_practice	0.0	preferred_right	300.0	0.0		13.347406500019133	0.050554600020404905
0	8.415066900022794	stim	196		2	ambiguous_practice	ambiguous_practice	0.0	preferred_right	300.0	0.0		13.397961100039538	0.05016300000716001
0	8.465229900029954	stim	197		2	ambiguous_practice	ambiguous_practice	0.0	preferred_right	300.0	0.0		13.448124100046698	0.050357499974779785
0	8.515587400004733	stim	198		2	ambiguous_practice	ambiguous_practice	0.0	preferred_right	300.0	0.0		13.498481600021478	0.050031599996145815
0	8.56561900000088	stim	199		2	ambiguous_practice	ambiguous_practice	0.0	preferred_right	300.0	0.0		13.548513200017624	0.04993280000053346
0	8.615551800001413	stim	200		2	ambiguous_practice	ambiguous_practice	0.0	preferred_right	300.0	0.0		13.598446000018157	0.050313199986703694
0	8.665864999988116	stim	201		2	ambiguous_practice	ambiguous_practice	0.0	preferred_right	300.0	0.0		13.64875920000486	0.050141100015025586
0	8.716006100003142	stim	202		2	ambiguous_practice	ambiguous_practice	0.0	preferred_right	300.0	0.0		13.698900300019886	0.04997629998251796
0	8.76598239998566	stim	203		2	ambiguous_practice	ambiguous_practice	0.0	preferred_right	300.0	0.0		13.748876600002404	0.050335600040853024
0	8.816318000026513	stim	204		2	ambiguous_practice	ambiguous_practice	0.0	preferred_right	300.0	0.0		13.799212200043257	0.04971230000955984
0	8.866030300036073	stim	205		2	ambiguous_practice	ambiguous_practice	0.0	preferred_right	300.0	0.0		13.848924500052817	0.050320499984081835
0	8.916350800020155	stim	206		2	ambiguous_practice	ambiguous_practice	0.0	preferred_right	300.0	0.0		13.899245000036899	0.04989409999689087
0	8.966244900017045	stim	207		2	ambiguous_practice	ambiguous_practice	0.0	preferred_right	300.0	0.0		13.94913910003379	0.04999189998488873
0	9.016236800001934	stim	208		2	ambiguous_practice	ambiguous_practice	0.0	preferred_right	300.0	0.0		13.999131000018679	0.050216800009366125
0	9.0664536000113	stim	209		2	ambiguous_practice	ambiguous_practice	0.0	preferred_right	300.0	0.0		14.049347800028045	0.05005309998523444
0	9.116506699996535	stim	210		2	ambiguous_practice	ambiguous_practice	0.0	preferred_right	300.0	0.0		14.09940090001328	0.05304339999565855
0	9.169550099992193	stim	211		2	ambiguous_practice	ambiguous_practice	0.0	preferred_right	300.0	0.0		14.152444300008938	0.05001330003142357
0	9.219563400023617	stim	212		2	ambiguous_practice	ambiguous_practice	0.0	preferred_right	300.0	0.0		14.202457600040361	0.0498776999884285
0	9.269441100012045	stim	213		2	ambiguous_practice	ambiguous_practice	0.0	preferred_right	300.0	0.0		14.25233530002879	0.06451559998095036
0	9.333956699992996	stim	214		2	ambiguous_practice	ambiguous_practice	0.0	preferred_right	300.0	0.0		14.31685090000974	0.05256139999255538
0	9.386518099985551	stim	215		2	ambiguous_practice	ambiguous_practice	0.0	preferred_right	300.0	0.0		14.369412300002296	0.047564700013026595
0	9.434082799998578	stim	216		2	ambiguous_practice	ambiguous_practice	0.0	preferred_right	300.0	0.0		14.416977000015322	0.05292990000452846
0	9.487012700003106	stim	217		2	ambiguous_practice	ambiguous_practice	0.0	preferred_right	300.0	0.0		14.46990690001985	0.049624199979007244
0	9.536636899982113	stim	218		2	ambiguous_practice	ambiguous_practice	0.0	preferred_right	300.0	0.0		14.519531099998858	0.050246500002685934
0	9.5868833999848	stim	219		2	ambiguous_practice	ambiguous_practice	0.0	preferred_right	300.0	0.0		14.569777600001544	0.05049039999721572
0	9.637373799982015	stim	220		2	ambiguous_practice	ambiguous_practice	0.0	preferred_right	300.0	0.0		14.62026799999876	0.049585600034333766
0	9.686959400016349	stim	221		2	ambiguous_practice	ambiguous_practice	0.0	preferred_right	300.0	0.0		14.669853600033093	0.04996979999123141
0	9.73692920000758	stim	222		2	ambiguous_practice	ambiguous_practice	0.0	preferred_right	300.0	0.0		14.719823400024325	0.04983969999011606
0	9.786768899997696	stim	223		2	ambiguous_practice	ambiguous_practice	0.0	preferred_right	300.0	0.0		14.76966310001444	0.06486750004114583
0	9.851636400038842	stim	224		2	ambiguous_practice	ambiguous_practice	0.0	preferred_right	300.0	0.0		14.834530600055587	0.050501099962275475
0	9.902137500001118	stim	225		2	ambiguous_practice	ambiguous_practice	0.0	preferred_right	300.0	0.0		14.885031700017862	0.049499700020533055
0	9.95163720002165	stim	226		2	ambiguous_practice	ambiguous_practice	0.0	preferred_right	300.0	0.0		14.934531400038395	0.052705599984619766
0	10.00434280000627	stim	227		2	ambiguous_practice	ambiguous_practice	0.0	preferred_right	300.0	0.0		14.987237000023015	0.06618259998504072
0	10.070525399991311	stim	228		2	ambiguous_practice	ambiguous_practice	0.0	preferred_right	300.0	0.0		15.053419600008056	0.06691650004358962
0	10.1374419000349	stim	229		2	ambiguous_practice	ambiguous_practice	0.0	preferred_right	300.0	0.0		15.120336100051645	0.04968109994661063
0	10.187122999981511	stim	230		2	ambiguous_practice	ambiguous_practice	0.0	preferred_right	300.0	0.0		15.170017199998256	0.04828250000718981
0	10.235405499988701	stim	231		2	ambiguous_practice	ambiguous_practice	0.0	preferred_right	300.0	0.0		15.218299700005446	0.04960690002189949
0	10.2850124000106	stim	232		2	ambiguous_practice	ambiguous_practice	0.0	preferred_right	300.0	0.0		15.267906600027345	0.05017120001139119
0	10.335183600021992	stim	233		2	ambiguous_practice	ambiguous_practice	0.0	preferred_right	300.0	0.0		15.318077800038736	0.050665599992498755
0	10.38584920001449	stim	234		2	ambiguous_practice	ambiguous_practice	0.0	preferred_right	300.0	0.0		15.368743400031235	0.049467200005892664
0	10.435316400020383	stim	235		2	ambiguous_practice	ambiguous_practice	0.0	preferred_right	300.0	0.0		15.418210600037128	0.049938199983444065
0	10.485254600003827	stim	236		2	ambiguous_practice	ambiguous_practice	0.0	preferred_right	300.0	0.0		15.468148800020572	0.05004900001222268
0	10.53530360001605	stim	237		2	ambiguous_practice	ambiguous_practice	0.0	preferred_right	300.0	0.0		15.518197800032794	0.049975199974142015
0	10.585278799990192	stim	238		2	ambiguous_practice	ambiguous_practice	0.0	preferred_right	300.0	0.0		15.568173000006936	0.05022380000445992
0	10.635502599994652	stim	239		2	ambiguous_practice	ambiguous_practice	0.0	preferred_right	300.0	0.0		15.618396800011396	0.05029300000751391
0	10.685795600002166	stim	240		2	ambiguous_practice	ambiguous_practice	0.0	preferred_right	300.0	0.0		15.66868980001891	0.04985559999477118
0	10.735651199996937	stim	241		2	ambiguous_practice	ambiguous_practice	0.0	preferred_right	300.0	0.0		15.718545400013682	0.04978810000466183
0	10.785439300001599	stim	242		2	ambiguous_practice	ambiguous_practice	0.0	preferred_right	300.0	0.0		15.768333500018343	0.049836100020911545
0	10.83527540002251	stim	243		2	ambiguous_practice	ambiguous_practice	0.0	preferred_right	300.0	0.0		15.818169600039255	0.050301400013267994
0	10.885576800035778	stim	244		2	ambiguous_practice	ambiguous_practice	0.0	preferred_right	300.0	0.0		15.868471000052523	0.05000139999901876
0	10.935578200034797	stim	245		2	ambiguous_practice	ambiguous_practice	0.0	preferred_right	300.0	0.0		15.918472400051542	0.0500086999963969
0	10.985586900031194	stim	246		2	ambiguous_practice	ambiguous_practice	0.0	preferred_right	300.0	0.0		15.968481100047939	0.04999359999783337
0	11.035580500029027	stim	247		2	ambiguous_practice	ambiguous_practice	0.0	preferred_right	300.0	0.0		16.018474700045772	0.04949409997789189
0	11.08507460000692	stim	248		2	ambiguous_practice	ambiguous_practice	0.0	preferred_right	300.0	0.0		16.067968800023664	0.05047090002335608
0	11.135545500030275	stim	249		2	ambiguous_practice	ambiguous_practice	0.0	preferred_right	300.0	0.0		16.11843970004702	0.050068499986082315
0	11.185614000016358	stim	250		2	ambiguous_practice	ambiguous_practice	0.0	preferred_right	300.0	0.0		16.168508200033102	0.04990159999579191
0	11.23551560001215	stim	251		2	ambiguous_practice	ambiguous_practice	0.0	preferred_right	300.0	0.0		16.218409800028894	0.049930899986065924
0	11.285446499998216	stim	252		2	ambiguous_practice	ambiguous_practice	0.0	preferred_right	300.0	0.0		16.26834070001496	0.04989790002582595
0	11.335344400024042	stim	253		2	ambiguous_practice	ambiguous_practice	0.0	preferred_right	300.0	0.0		16.318238600040786	0.049963500001467764
0	11.38530790002551	stim	254		2	ambiguous_practice	ambiguous_practice	0.0	preferred_right	300.0	0.0		16.368202100042254	0.033547199971508235
0	11.418855099997018	stim	255		2	ambiguous_practice	ambiguous_practice	0.0	preferred_right	300.0	0.0		16.401749300013762	0.0501390999997966
0	11.468994199996814	stim	256		2	ambiguous_practice	ambiguous_practice	0.0	preferred_right	300.0	0.0		16.45188840001356	0.05048989999340847
0	11.519484099990223	stim	257		2	ambiguous_practice	ambiguous_practice	0.0	preferred_right	300.0	0.0		16.502378300006967	0.050450900045689195
0	11.569935000035912	stim	258		2	ambiguous_practice	ambiguous_practice	0.0	preferred_right	300.0	0.0		16.552829200052656	0.049673200002871454
0	11.619608200038783	stim	259		2	ambiguous_practice	ambiguous_practice	0.0	preferred_right	300.0	0.0		16.602502400055528	0.03347819996997714
0	11.65308640000876	stim	260		2	ambiguous_practice	ambiguous_practice	0.0	preferred_right	300.0	0.0		16.635980600025505	0.049979800009168684
0	11.703066200017929	stim	261		2	ambiguous_practice	ambiguous_practice	0.0	preferred_right	300.0	0.0		16.685960400034674	0.04995830002008006
0	11.75302450003801	stim	262		2	ambiguous_practice	ambiguous_practice	0.0	preferred_right	300.0	0.0		16.735918700054754	0.049884999985806644
0	11.802909500023816	stim	263		2	ambiguous_practice	ambiguous_practice	0.0	preferred_right	300.0	0.0		16.78580370004056	0.0502693000016734
0	11.85317880002549	stim	264		2	ambiguous_practice	ambiguous_practice	0.0	preferred_right	300.0	0.0		16.836073000042234	0.0499098000000231
0	11.903088600025512	stim	265		2	ambiguous_practice	ambiguous_practice	0.0	preferred_right	300.0	0.0		16.885982800042257	0.04993859998648986
0	11.953027200012002	stim	266		2	ambiguous_practice	ambiguous_practice	0.0	preferred_right	300.0	0.0		16.935921400028747	0.05025879997992888
0	12.003285999991931	stim	267		2	ambiguous_practice	ambiguous_practice	0.0	preferred_right	300.0	0.0		16.986180200008675	0.04972980002639815
0	12.05301580001833	stim	268		2	ambiguous_practice	ambiguous_practice	0.0	preferred_right	300.0	0.0		17.035910000035074	0.05013589997543022
0	12.10315169999376	stim	269		2	ambiguous_practice	ambiguous_practice	0.0	preferred_right	300.0	0.0		17.086045900010504	0.05004100000951439
0	12.153192700003274	stim	270		2	ambiguous_practice	ambiguous_practice	0.0	preferred_right	300.0	0.0		17.136086900020018	0.05043519998434931
0	12.203627899987623	stim	271		2	ambiguous_practice	ambiguous_practice	0.0	preferred_right	300.0	0.0		17.186522100004368	0.05000760004622862
0	12.253635500033852	stim	272		2	ambiguous_practice	ambiguous_practice	0.0	preferred_right	300.0	0.0		17.236529700050596	0.04993639996973798
0	12.30357190000359	stim	273		2	ambiguous_practice	ambiguous_practice	0.0	preferred_right	300.0	0.0		17.286466100020334	0.049802099994849414
0	12.353373999998439	stim	274		2	ambiguous_practice	ambiguous_practice	0.0	preferred_right	300.0	0.0		17.336268200015184	0.050283499993383884
0	12.403657499991823	stim	275		2	ambiguous_practice	ambiguous_practice	0.0	preferred_right	300.0	0.0		17.386551700008567	0.05002750002313405
0	12.453685000014957	stim	276		2	ambiguous_practice	ambiguous_practice	0.0	preferred_right	300.0	0.0		17.4365792000317	0.05028309999033809
0	12.503968100005295	stim	277		2	ambiguous_practice	ambiguous_practice	0.0	preferred_right	300.0	0.0		17.48686230002204	0.05041939998045564
0	12.55438749998575	stim	278		2	ambiguous_practice	ambiguous_practice	0.0	preferred_right	300.0	0.0		17.537281700002495	0.04997920000459999
0	12.60436669999035	stim	279		2	ambiguous_practice	ambiguous_practice	0.0	preferred_right	300.0	0.0		17.587260900007095	0.050615200016181916
0	12.654981900006533	stim	280		2	ambiguous_practice	ambiguous_practice	0.0	preferred_right	300.0	0.0		17.637876100023277	0.04972870001802221
0	12.704710600024555	stim	281		2	ambiguous_practice	ambiguous_practice	0.0	preferred_right	300.0	0.0		17.6876048000413	0.050259499985259026
0	12.754970100009814	stim	282		2	ambiguous_practice	ambiguous_practice	0.0	preferred_right	300.0	0.0		17.73786430002656	0.04995549999875948
0	12.804925600008573	stim	283		2	ambiguous_practice	ambiguous_practice	0.0	preferred_right	300.0	0.0		17.787819800025318	0.04983769997488707
0	12.85476329998346	stim	284		2	ambiguous_practice	ambiguous_practice	0.0	preferred_right	300.0	0.0		17.837657500000205	0.05004540004301816
0	12.904808700026479	stim	285		2	ambiguous_practice	ambiguous_practice	0.0	preferred_right	300.0	0.0		17.887702900043223	0.05007409997051582
0	12.954882799996994	stim	286		2	ambiguous_practice	ambiguous_practice	0.0	preferred_right	300.0	0.0		17.93777700001374	0.050535099988337606
0	13.005417899985332	stim	287		2	ambiguous_practice	ambiguous_practice	0.0	preferred_right	300.0	0.0		17.988312100002076	0.04932230000849813
0	13.05474019999383	stim	288		2	ambiguous_practice	ambiguous_practice	0.0	preferred_right	300.0	0.0		18.037634400010575	0.05102930002612993
0	13.10576950001996	stim	289		2	ambiguous_practice	ambiguous_practice	0.0	preferred_right	300.0	0.0		18.088663700036705	0.04969879996497184
0	13.155468299984932	stim	290		2	ambiguous_practice	ambiguous_practice	0.0	preferred_right	300.0	0.0		18.138362500001676	0.05029030004516244
0	13.205758600030094	stim	291		2	ambiguous_practice	ambiguous_practice	0.0	preferred_right	300.0	0.0		18.18865280004684	0.05045019998215139
0	13.256208800012246	stim	292		2	ambiguous_practice	ambiguous_practice	0.0	preferred_right	300.0	0.0		18.23910300002899	0.049270500021521
0	13.305479300033767	stim	293		2	ambiguous_practice	ambiguous_practice	0.0	preferred_right	300.0	0.0		18.28837350005051	0.05027179996250197
0	13.355751099996269	stim	294		2	ambiguous_practice	ambiguous_practice	0.0	preferred_right	300.0	0.0		18.338645300013013	0.050431400013621897
0	13.40618250000989	stim	295		2	ambiguous_practice	ambiguous_practice	0.0	preferred_right	300.0	0.0		18.389076700026635	0.050013699976261705
0	13.456196199986152	stim	296		2	ambiguous_practice	ambiguous_practice	0.0	preferred_right	300.0	0.0		18.439090400002897	0.050033000006806105
0	13.506229199992958	stim	297		2	ambiguous_practice	ambiguous_practice	0.0	preferred_right	300.0	0.0		18.489123400009703	0.04988380003487691
0	13.556113000027835	stim	298		2	ambiguous_practice	ambiguous_practice	0.0	preferred_right	300.0	0.0		18.53900720004458	0.050296699977479875
0	13.606409700005315	stim	299		2	ambiguous_practice	ambiguous_practice	0.0	preferred_right	300.0	0.0		18.58930390002206	0.05041630001505837
0	13.656826000020374	stim	0		2	unambiguous_practice	left_practice	0.0	preferred_right	98.0	0.0		18.639720200037118	0.04961260000709444
0	13.706438600027468	stim	1		2	unambiguous_practice	left_practice	0.0	preferred_right	98.0	0.0		18.689332800044212	0.05158389999996871
0	13.758022500027437	stim	2		2	unambiguous_practice	left_practice	0.0	preferred_right	98.0	0.0		18.74091670004418	0.048545399971771985
0	13.806567899999209	stim	3		2	unambiguous_practice	left_practice	0.0	preferred_right	98.0	0.0		18.789462100015953	0.05028550000861287
0	13.856853400007822	stim	4		2	unambiguous_practice	left_practice	0.0	preferred_right	98.0	0.0		18.839747600024566	0.05055719998199493
0	13.907410599989817	stim	5		2	unambiguous_practice	left_practice	0.0	preferred_right	98.0	0.0		18.89030480000656	0.05003530002431944
0	13.957445900014136	stim	6		2	unambiguous_practice	left_practice	0.0	preferred_right	98.0	0.0		18.94034010003088	0.04949419997865334
0	14.00694009999279	stim	7		2	unambiguous_practice	left_practice	0.0	preferred_right	98.0	0.0		18.989834300009534	0.05007110000588
0	14.05701119999867	stim	8		2	unambiguous_practice	left_practice	0.0	preferred_right	98.0	0.0		19.039905400015414	0.05027210002299398
0	14.107283300021663	stim	9		2	unambiguous_practice	left_practice	0.0	preferred_right	98.0	0.0		19.090177500038408	0.049979700008407235
0	14.15726300003007	stim	10		2	unambiguous_practice	left_practice	0.0	preferred_right	98.0	0.0		19.140157200046815	0.05064559995662421
0	14.207908599986695	stim	11		2	unambiguous_practice	left_practice	0.0	preferred_right	98.0	0.0		19.19080280000344	0.05007380002643913
0	14.257982400013134	stim	12		2	unambiguous_practice	left_practice	0.0	preferred_right	98.0	0.0		19.24087660002988	0.04980739997699857
0	14.307789799990132	stim	13		2	unambiguous_practice	left_practice	0.0	preferred_right	98.0	0.0		19.290684000006877	0.049815500038675964
0	14.357605300028808	stim	14		2	unambiguous_practice	left_practice	0.0	preferred_right	98.0	0.0		19.340499500045553	0.05045909999171272
0	14.408064400020521	stim	15		2	unambiguous_practice	left_practice	0.0	preferred_right	98.0	0.0		19.390958600037266	0.04993039998225868
0	14.45799480000278	stim	16		2	unambiguous_practice	left_practice	0.0	preferred_right	98.0	0.0		19.440889000019524	0.049859700025990605
0	14.50785450002877	stim	17		2	unambiguous_practice	left_practice	0.0	preferred_right	98.0	0.0		19.490748700045515	0.04968900000676513
0	14.557543500035536	stim	18		2	unambiguous_practice	left_practice	0.0	preferred_right	98.0	0.0		19.54043770005228	0.05036209995159879
0	14.607905599987134	stim	19		2	unambiguous_practice	left_practice	0.0	preferred_right	98.0	0.0		19.59079980000388	0.05004709999775514
0	14.65795269998489	stim	20		2	unambiguous_practice	left_practice	0.0	preferred_right	98.0	0.0		19.640846900001634	0.04992720001609996
0	14.70787990000099	stim	21		2	unambiguous_practice	left_practice	0.0	preferred_right	98.0	0.0		19.690774100017734	0.050126600021030754
0	14.75800650002202	stim	22		2	unambiguous_practice	left_practice	0.0	preferred_right	98.0	0.0		19.740900700038765	0.04954079998424277
0	14.807547300006263	stim	23		2	unambiguous_practice	left_practice	0.0	preferred_right	98.0	0.0		19.790441500023007	0.050399900006596
0	14.857947200012859	stim	24		2	unambiguous_practice	left_practice	0.0	preferred_right	98.0	0.0		19.840841400029603	0.04988250002497807
0	14.907829700037837	stim	25		2	unambiguous_practice	left_practice	0.0	preferred_right	98.0	0.0		19.89072390005458	0.050182599981781095
0	14.958012300019618	stim	26		2	unambiguous_practice	left_practice	0.0	preferred_right	98.0	0.0		19.940906500036363	0.05090909998398274
0	15.0089214000036	stim	27		2	unambiguous_practice	left_practice	0.0	preferred_right	98.0	0.0		19.991815600020345	0.04890970000997186
0	15.057831100013573	stim	28		2	unambiguous_practice	left_practice	0.0	preferred_right	98.0	0.0		20.040725300030317	0.050253599998541176
0	15.108084700012114	stim	29		2	unambiguous_practice	left_practice	0.0	preferred_right	98.0	0.0		20.09097890002886	0.05014900001697242
0	15.158233700029086	stim	30		2	unambiguous_practice	left_practice	0.0	preferred_right	98.0	0.0		20.14112790004583	0.05176159995608032
0	15.209995299985167	stim	31		2	unambiguous_practice	left_practice	0.0	preferred_right	98.0	0.0		20.19288950000191	0.049079100019298494
0	15.259074400004465	stim	32		2	unambiguous_practice	left_practice	0.0	preferred_right	98.0	0.0		20.24196860002121	0.04960149998078123
0	15.308675899985246	stim	33		2	unambiguous_practice	left_practice	0.0	preferred_right	98.0	0.0		20.29157010000199	0.06597710005007684
0	15.374653000035323	stim	34		2	unambiguous_practice	left_practice	0.0	preferred_right	98.0	0.0		20.357547200052068	0.05005859996890649
0	15.42471160000423	stim	35		2	unambiguous_practice	left_practice	0.0	preferred_right	98.0	0.0		20.407605800020974	0.05042959999991581
0	15.475141200004146	stim	36		2	unambiguous_practice	left_practice	0.0	preferred_right	98.0	0.0		20.45803540002089	0.049962099990807474
0	15.525103299994953	stim	37		2	unambiguous_practice	left_practice	0.0	preferred_right	98.0	0.0		20.507997500011697	0.049490600009448826
0	15.574593900004402	stim	38		2	unambiguous_practice	left_practice	0.0	preferred_right	98.0	0.0		20.557488100021146	0.050459699996281415
0	15.625053600000683	stim	39		2	unambiguous_practice	left_practice	0.0	preferred_right	98.0	0.0		20.607947800017428	0.05015060002915561
0	15.675204200029839	stim	40		2	unambiguous_practice	left_practice	0.0	preferred_right	98.0	0.0		20.658098400046583	0.049800299981143326
0	15.725004500010982	stim	41		2	unambiguous_practice	left_practice	0.0	preferred_right	98.0	0.0		20.707898700027727	0.05008539999835193
0	15.775089900009334	stim	42		2	unambiguous_practice	left_practice	0.0	preferred_right	98.0	0.0		20.75798410002608	0.04988070001127198
0	15.824970600020606	stim	43		2	unambiguous_practice	left_practice	0.0	preferred_right	98.0	0.0		20.80786480003735	0.0330934000085108
0	15.858064000029117	stim	44		2	unambiguous_practice	left_practice	0.0	preferred_right	98.0	0.0		20.84095820004586	0.03326940000988543
0	15.891333400039002	stim	45		2	unambiguous_practice	left_practice	0.0	preferred_right	98.0	0.0		20.874227600055747	0.03361429995857179
0	15.924947699997574	stim	46		2	unambiguous_practice	left_practice	0.0	preferred_right	98.0	0.0		20.90784190001432	0.03325770003721118
0	15.958205400034785	stim	47		2	unambiguous_practice	left_practice	0.0	preferred_right	98.0	0.0		20.94109960005153	0.03316009999252856
0	15.991365500027314	stim	48		2	unambiguous_practice	left_practice	0.0	preferred_right	98.0	0.0		20.97425970004406	0.03354400000534952
0	16.024909500032663	stim	49		2	unambiguous_practice	left_practice	0.0	preferred_right	98.0	0.0		21.007803700049408	0.03268879995448515
0	16.05759829998715	stim	50		2	unambiguous_practice	left_practice	0.0	preferred_right	98.0	0.0		21.040492500003893	0.03433039999799803
0	16.091928699985147	stim	51		2	unambiguous_practice	left_practice	0.0	preferred_right	98.0	0.0		21.07482290000189	0.033350300043821335
0	16.125279000028968	stim	52		2	unambiguous_practice	left_practice	0.0	preferred_right	98.0	0.0		21.108173200045712	0.03338169999187812
0	16.158660700020846	stim	53		2	unambiguous_practice	left_practice	0.0	preferred_right	98.0	0.0		21.14155490003759	0.03348589997040108
0	16.192146599991247	stim	54		2	unambiguous_practice	left_practice	0.0	preferred_right	98.0	0.0		21.17504080000799	0.0336265999940224
0	16.22577319998527	stim	55		2	unambiguous_practice	left_practice	0.0	preferred_right	98.0	0.0		21.208667400002014	0.03329040005337447
0	16.259063600038644	stim	56		2	unambiguous_practice	left_practice	0.0	preferred_right	98.0	0.0		21.24195780005539	0.03332959994440898
0	16.292393199983053	stim	57		2	unambiguous_practice	left_practice	0.0	preferred_right	98.0	0.0		21.275287399999797	0.03270670003257692
0	16.32509990001563	stim	58		2	unambiguous_practice	left_practice	0.0	preferred_right	98.0	0.0		21.307994100032374	0.03418670000974089
0	16.35928660002537	stim	59		2	unambiguous_practice	left_practice	0.0	preferred_right	98.0	0.0		21.342180800042115	0.03324570000404492
0	16.392532300029416	stim	60		2	unambiguous_practice	left_practice	0.0	preferred_right	98.0	0.0		21.37542650004616	0.03336239996133372
0	16.42589469999075	stim	61		2	unambiguous_practice	left_practice	0.0	preferred_right	98.0	0.0		21.408788900007494	0.0335093000321649
0	16.459404000022914	stim	62		2	unambiguous_practice	left_practice	0.0	preferred_right	98.0	0.0		21.44229820003966	0.033584099961444736
0	16.49298809998436	stim	63		2	unambiguous_practice	left_practice	0.0	preferred_right	98.0	0.0		21.475882300001103	0.03345790004823357
0	16.526446000032593	stim	64		2	unambiguous_practice	left_practice	0.0	preferred_right	98.0	0.0		21.509340200049337	0.033427199989091605
0	16.559873200021684	stim	65		2	unambiguous_practice	left_practice	0.0	preferred_right	98.0	0.0		21.54276740003843	0.032918799959588796
0	16.592791999981273	stim	66		2	unambiguous_practice	left_practice	0.0	preferred_right	98.0	0.0		21.575686199998017	0.03383690002374351
0	16.626628900005016	stim	67		2	unambiguous_practice	left_practice	0.0	preferred_right	98.0	0.0		21.60952310002176	0.03381310001714155
0	16.660442000022158	stim	68		2	unambiguous_practice	left_practice	0.0	preferred_right	98.0	0.0		21.643336200038902	0.04999979998683557
0	16.710441800008994	stim	69		2	unambiguous_practice	left_practice	0.0	preferred_right	98.0	0.0		21.693336000025738	0.05005610000807792
0	16.76049790001707	stim	70		2	unambiguous_practice	left_practice	0.0	preferred_right	98.0	0.0		21.743392100033816	0.050965200003702193
0	16.811463100020774	stim	71		2	unambiguous_practice	left_practice	0.0	preferred_right	98.0	0.0		21.794357300037518	0.049415100016631186
0	16.860878200037405	stim	72		2	unambiguous_practice	left_practice	0.0	preferred_right	98.0	0.0		21.84377240005415	0.05068379995645955
0	16.911561999993864	stim	73		2	unambiguous_practice	left_practice	0.0	preferred_right	98.0	0.0		21.89445620001061	0.049522000015713274
0	16.961084000009578	stim	74		2	unambiguous_practice	left_practice	0.0	preferred_right	98.0	0.0		21.943978200026322	0.051065800013020635
0	17.0121498000226	stim	75		2	unambiguous_practice	left_practice	0.0	preferred_right	98.0	0.0		21.995044000039343	0.049721799965482205
0	17.06187159998808	stim	76		2	unambiguous_practice	left_practice	0.0	preferred_right	98.0	0.0		22.044765800004825	0.06558990001212806
0	17.12746150000021	stim	77		2	unambiguous_practice	left_practice	0.0	preferred_right	98.0	0.0		22.110355700016953	0.051585600012913346
0	17.179047100013122	stim	78		2	unambiguous_practice	left_practice	0.0	preferred_right	98.0	0.0		22.161941300029866	0.04966319998493418
0	17.228710299998056	stim	79		2	unambiguous_practice	left_practice	0.0	preferred_right	98.0	0.0		22.2116045000148	0.04986640001880005
0	17.278576700016856	stim	80		2	unambiguous_practice	left_practice	0.0	preferred_right	98.0	0.0		22.2614709000336	0.06679640000220388
0	17.34537310001906	stim	81		2	unambiguous_practice	left_practice	0.0	preferred_right	98.0	0.0		22.328267300035805	0.051018199999816716
0	17.396391300018877	stim	82		2	unambiguous_practice	left_practice	0.0	preferred_right	98.0	0.0		22.37928550003562	0.06582780001917854
0	17.462219100038055	stim	83		2	unambiguous_practice	left_practice	0.0	preferred_right	98.0	0.0		22.4451133000548	0.05008899996755645
0	17.512308100005612	stim	84		2	unambiguous_practice	left_practice	0.0	preferred_right	98.0	0.0		22.495202300022356	0.06645330000901595
0	17.578761400014628	stim	85		2	unambiguous_practice	left_practice	0.0	preferred_right	98.0	0.0		22.561655600031372	0.04982329998165369
0	17.62858469999628	stim	86		2	unambiguous_practice	left_practice	0.0	preferred_right	98.0	0.0		22.611478900013026	0.05040840001311153
0	17.678993100009393	stim	87		2	unambiguous_practice	left_practice	0.0	preferred_right	98.0	0.0		22.661887300026137	0.06560480000916868
0	17.74459790001856	stim	88		2	unambiguous_practice	left_practice	0.0	preferred_right	98.0	0.0		22.727492100035306	0.0500451999832876
0	17.79464310000185	stim	89		2	unambiguous_practice	left_practice	0.0	preferred_right	98.0	0.0		22.777537300018594	0.04984290001448244
0	17.84448600001633	stim	90		2	unambiguous_practice	left_practice	0.0	preferred_right	98.0	0.0		22.827380200033076	0.050272799970116466
0	17.894758799986448	stim	91		2	unambiguous_practice	left_practice	0.0	preferred_right	98.0	0.0		22.877653000003193	0.05107960000168532
0	17.945838399988133	stim	92		2	unambiguous_practice	left_practice	0.0	preferred_right	98.0	0.0		22.928732600004878	0.0664480000268668
0	18.012286400015	stim	93		2	unambiguous_practice	left_practice	0.0	preferred_right	98.0	0.0		22.995180600031745	0.048921899986453354
0	18.061208300001454	stim	94		2	unambiguous_practice	left_practice	0.0	preferred_right	98.0	0.0		23.044102500018198	0.050588499987497926
0	18.11179679998895	stim	95		2	unambiguous_practice	left_practice	0.0	preferred_right	98.0	0.0		23.094691000005696	0.049711600004229695
0	18.16150839999318	stim	96		2	unambiguous_practice	left_practice	0.0	preferred_right	98.0	0.0		23.144402600009926	0.05152400000952184
0	18.213032400002703	stim	97		2	unambiguous_practice	left_practice	0.0	preferred_right	98.0	0.0		23.195926600019448	0.06820550002157688
0	18.28123790002428	stim	0		2	unambiguous_practice	left_practice	0.0	preferred_right	100.0	98.0		23.264132100041024	0.06405539996922016
0	18.3452932999935	stim	1		2	unambiguous_practice	left_practice	0.0	preferred_right	100.0	98.0		23.328187500010245	0.050271500018425286
0	18.395564800011925	stim	2		2	unambiguous_practice	left_practice	0.0	preferred_right	100.0	98.0		23.37845900002867	0.051871799980290234
0	18.447436599992216	stim	3		2	unambiguous_practice	left_practice	0.0	preferred_right	100.0	98.0		23.43033080000896	0.04919950000476092
0	18.496636099996977	stim	4		2	unambiguous_practice	left_practice	0.0	preferred_right	100.0	98.0		23.47953030001372	0.049929400032851845
0	18.54656550002983	stim	5		2	unambiguous_practice	left_practice	0.0	preferred_right	100.0	98.0		23.529459700046573	0.06547329999739304
0	18.61203880002722	stim	6		2	unambiguous_practice	left_practice	0.0	preferred_right	100.0	98.0		23.594933000043966	0.050102400011383
0	18.662141200038604	stim	7		2	unambiguous_practice	left_practice	0.0	preferred_right	100.0	98.0		23.64503540005535	0.05129759997362271
0	18.713438800012227	stim	8		2	unambiguous_practice	left_practice	0.0	preferred_right	100.0	98.0		23.69633300002897	0.0676122999866493
0	18.781051099998876	stim	9		2	unambiguous_practice	left_practice	0.0	preferred_right	100.0	98.0		23.76394530001562	0.06591950001893565
0	18.846970600017812	stim	10		2	unambiguous_practice	left_practice	0.0	preferred_right	100.0	98.0		23.829864800034557	0.06711689999792725
0	18.91408750001574	stim	11		2	unambiguous_practice	left_practice	0.0	preferred_right	100.0	98.0		23.896981700032484	0.05007519997889176
0	18.96416269999463	stim	12		2	unambiguous_practice	left_practice	0.0	preferred_right	100.0	98.0		23.947056900011376	0.04957720002857968
0	19.01373990002321	stim	13		2	unambiguous_practice	left_practice	0.0	preferred_right	100.0	98.0		23.996634100039955	0.04984859999967739
0	19.063588500022888	stim	14		2	unambiguous_practice	left_practice	0.0	preferred_right	100.0	98.0		24.046482700039633	0.06706370000028983
0	19.130652200023178	stim	15		2	unambiguous_practice	left_practice	0.0	preferred_right	100.0	98.0		24.113546400039922	0.04869279998820275
0	19.17934500001138	stim	16		2	unambiguous_practice	left_practice	0.0	preferred_right	100.0	98.0		24.162239200028125	0.05072260001907125
0	19.230067600030452	stim	17		2	unambiguous_practice	left_practice	0.0	preferred_right	100.0	98.0		24.212961800047196	0.05023870000150055
0	19.280306300031953	stim	18		2	unambiguous_practice	left_practice	0.0	preferred_right	100.0	98.0		24.263200500048697	0.0496850999770686
0	19.32999140000902	stim	19		2	unambiguous_practice	left_practice	0.0	preferred_right	100.0	98.0		24.312885600025766	0.06790790002560243
0	19.397899300034624	stim	20		2	unambiguous_practice	left_practice	0.0	preferred_right	100.0	98.0		24.380793500051368	0.04938209999818355
0	19.447281400032807	stim	21		2	unambiguous_practice	left_practice	0.0	preferred_right	100.0	98.0		24.43017560004955	0.06766909995349124
0	19.5149504999863	stim	22		2	unambiguous_practice	left_practice	0.0	preferred_right	100.0	98.0		24.497844700003043	0.048869999998714775
0	19.563820499985013	stim	23		2	unambiguous_practice	left_practice	0.0	preferred_right	100.0	98.0		24.546714700001758	0.04902470001252368
0	19.612845199997537	stim	24		2	unambiguous_practice	left_practice	0.0	preferred_right	100.0	98.0		24.59573940001428	0.05005150003125891
0	19.662896700028796	stim	25		2	unambiguous_practice	left_practice	0.0	preferred_right	100.0	98.0		24.64579090004554	0.05008399998769164
0	19.712980700016487	stim	26		2	unambiguous_practice	left_practice	0.0	preferred_right	100.0	98.0		24.695874900033232	0.05023380002239719
0	19.763214500038885	stim	27		2	unambiguous_practice	left_practice	0.0	preferred_right	100.0	98.0		24.74610870005563	0.04990339995129034
0	19.813117899990175	stim	28		2	unambiguous_practice	left_practice	0.0	preferred_right	100.0	98.0		24.79601210000692	0.05015550000825897
0	19.863273399998434	stim	29		2	unambiguous_practice	left_practice	0.0	preferred_right	100.0	98.0		24.84616760001518	0.05018630000995472
0	19.91345970000839	stim	30		2	unambiguous_practice	left_practice	0.0	preferred_right	100.0	98.0		24.896353900025133	0.05049450002843514
0	19.963954200036824	stim	31		2	unambiguous_practice	left_practice	0.0	preferred_right	100.0	98.0		24.946848400053568	0.049859499966260046
0	20.013813700003084	stim	32		2	unambiguous_practice	left_practice	0.0	preferred_right	100.0	98.0		24.99670790001983	0.049800299981143326
0	20.063613999984227	stim	33		2	unambiguous_practice	left_practice	0.0	preferred_right	100.0	98.0		25.04650820000097	0.05016870005056262
0	20.11378270003479	stim	34		2	unambiguous_practice	left_practice	0.0	preferred_right	100.0	98.0		25.096676900051534	0.05078029999276623
0	20.164563000027556	stim	35		2	unambiguous_practice	left_practice	0.0	preferred_right	100.0	98.0		25.1474572000443	0.04947039997205138
0	20.214033399999607	stim	36		2	unambiguous_practice	left_practice	0.0	preferred_right	100.0	98.0		25.196927600016352	0.049973900022450835
0	20.264007300022058	stim	37		2	unambiguous_practice	left_practice	0.0	preferred_right	100.0	98.0		25.246901500038803	0.0511564000044018
0	20.31516370002646	stim	38		2	unambiguous_practice	left_practice	0.0	preferred_right	100.0	98.0		25.298057900043204	0.06729239999549463
0	20.382456100021955	stim	39		2	unambiguous_practice	left_practice	0.0	preferred_right	100.0	98.0		25.3653503000387	0.06629569997312501
0	20.44875179999508	stim	40		2	unambiguous_practice	left_practice	0.0	preferred_right	100.0	98.0		25.431646000011824	0.050056600011885166
0	20.498808400006965	stim	41		2	unambiguous_practice	left_practice	0.0	preferred_right	100.0	98.0		25.48170260002371	0.06725969997933134
0	20.566068099986296	stim	42		2	unambiguous_practice	left_practice	0.0	preferred_right	100.0	98.0		25.54896230000304	0.049358999996911734
0	20.615427099983208	stim	43		2	unambiguous_practice	left_practice	0.0	preferred_right	100.0	98.0		25.598321299999952	0.06567350000841543
0	20.681100599991623	stim	44		2	unambiguous_practice	left_practice	0.0	preferred_right	100.0	98.0		25.663994800008368	0.05004070000723004
0	20.731141299998853	stim	45		2	unambiguous_practice	left_practice	0.0	preferred_right	100.0	98.0		25.714035500015598	0.05195230001118034
0	20.783093600010034	stim	46		2	unambiguous_practice	left_practice	0.0	preferred_right	100.0	98.0		25.765987800026778	0.04970969998976216
0	20.832803299999796	stim	47		2	unambiguous_practice	left_practice	0.0	preferred_right	100.0	98.0		25.81569750001654	0.050108600000385195
0	20.88291190000018	stim	48		2	unambiguous_practice	left_practice	0.0	preferred_right	100.0	98.0		25.865806100016925	0.06641020003007725
0	20.94932210003026	stim	49		2	unambiguous_practice	left_practice	0.0	preferred_right	100.0	98.0		25.932216300047003	0.050541099975816905
0	20.999863200006075	stim	50		2	unambiguous_practice	left_practice	0.0	preferred_right	100.0	98.0		25.98275740002282	0.050059699977282435
0	21.049922899983358	stim	51		2	unambiguous_practice	left_practice	0.0	preferred_right	100.0	98.0		26.032817100000102	0.06788490002509207
0	21.11780780000845	stim	52		2	unambiguous_practice	left_practice	0.0	preferred_right	100.0	98.0		26.100702000025194	0.05004549998557195
0	21.16785329999402	stim	53		2	unambiguous_practice	left_practice	0.0	preferred_right	100.0	98.0		26.150747500010766	0.05028369999490678
0	21.21813699998893	stim	54		2	unambiguous_practice	left_practice	0.0	preferred_right	100.0	98.0		26.201031200005673	0.04993910004850477
0	21.268076100037433	stim	55		2	unambiguous_practice	left_practice	0.0	preferred_right	100.0	98.0		26.250970300054178	0.04989139997633174
0	21.317967500013765	stim	56		2	unambiguous_practice	left_practice	0.0	preferred_right	100.0	98.0		26.30086170003051	0.04859989997930825
0	21.366567399993073	stim	57		2	unambiguous_practice	left_practice	0.0	preferred_right	100.0	98.0		26.349461600009818	0.03414669999619946
0	21.400714099989273	stim	58		2	unambiguous_practice	left_practice	0.0	preferred_right	100.0	98.0		26.383608300006017	0.03314180002780631
0	21.43385590001708	stim	59		2	unambiguous_practice	left_practice	0.0	preferred_right	100.0	98.0		26.416750100033823	0.03318939998280257
0	21.46704529999988	stim	60		2	unambiguous_practice	left_practice	0.0	preferred_right	100.0	98.0		26.449939500016626	0.033101400011219084
0	21.5001467000111	stim	61		2	unambiguous_practice	left_practice	0.0	preferred_right	100.0	98.0		26.483040900027845	0.03381870000157505
0	21.533965400012676	stim	62		2	unambiguous_practice	left_practice	0.0	preferred_right	100.0	98.0		26.51685960002942	0.03254619997460395
0	21.56651159998728	stim	63		2	unambiguous_practice	left_practice	0.0	preferred_right	100.0	98.0		26.549405800004024	0.0333907000022009
0	21.59990229998948	stim	64		2	unambiguous_practice	left_practice	0.0	preferred_right	100.0	98.0		26.582796500006225	0.03380269999615848
0	21.63370499998564	stim	65		2	unambiguous_practice	left_practice	0.0	preferred_right	100.0	98.0		26.616599200002383	0.033357900043483824
0	21.667062900029123	stim	66		2	unambiguous_practice	left_practice	0.0	preferred_right	100.0	98.0		26.649957100045867	0.03323850000742823
0	21.70030140003655	stim	67		2	unambiguous_practice	left_practice	0.0	preferred_right	100.0	98.0		26.683195600053295	0.033293699962086976
0	21.733595099998638	stim	68		2	unambiguous_practice	left_practice	0.0	preferred_right	100.0	98.0		26.716489300015382	0.03339570004027337
0	21.76699080003891	stim	69		2	unambiguous_practice	left_practice	0.0	preferred_right	100.0	98.0		26.749885000055656	0.03354819997912273
0	21.800539000018034	stim	70		2	unambiguous_practice	left_practice	0.0	preferred_right	100.0	98.0		26.78343320003478	0.032402099983301014
0	21.832941100001335	stim	71		2	unambiguous_practice	left_practice	0.0	preferred_right	100.0	98.0		26.81583530001808	0.03404450003290549
0	21.86698560003424	stim	72		2	unambiguous_practice	left_practice	0.0	preferred_right	100.0	98.0		26.849879800050985	0.033086499955970794
0	21.90007209999021	stim	73		2	unambiguous_practice	left_practice	0.0	preferred_right	100.0	98.0		26.882966300006956	0.03348530002404004
0	21.93355740001425	stim	74		2	unambiguous_practice	left_practice	0.0	preferred_right	100.0	98.0		26.916451600030996	0.033277500013355166
0	21.966834900027607	stim	75		2	unambiguous_practice	left_practice	0.0	preferred_right	100.0	98.0		26.94972910004435	0.03351249999832362
0	22.00034740002593	stim	76		2	unambiguous_practice	left_practice	0.0	preferred_right	100.0	98.0		26.983241600042675	0.03299360000528395
0	22.033341000031214	stim	77		2	unambiguous_practice	left_practice	0.0	preferred_right	100.0	98.0		27.01623520004796	0.03303829999640584
0	22.06637930002762	stim	78		2	unambiguous_practice	left_practice	0.0	preferred_right	100.0	98.0		27.049273500044364	0.03369789995485917
0	22.10007719998248	stim	79		2	unambiguous_practice	left_practice	0.0	preferred_right	100.0	98.0		27.082971399999224	0.03378410002915189
0	22.13386130001163	stim	80		2	unambiguous_practice	left_practice	0.0	preferred_right	100.0	98.0		27.116755500028376	0.033351799997035414
0	22.167213100008667	stim	81		2	unambiguous_practice	left_practice	0.0	preferred_right	100.0	98.0		27.15010730002541	0.03297950001433492
0	22.200192600023	stim	82		2	unambiguous_practice	left_practice	0.0	preferred_right	100.0	98.0		27.183086800039746	0.03388379997340962
0	22.23407639999641	stim	83		2	unambiguous_practice	left_practice	0.0	preferred_right	100.0	98.0		27.216970600013155	0.03321439999854192
0	22.267290799994953	stim	84		2	unambiguous_practice	left_practice	0.0	preferred_right	100.0	98.0		27.250185000011697	0.033411100041121244
0	22.300701900036074	stim	85		2	unambiguous_practice	left_practice	0.0	preferred_right	100.0	98.0		27.28359610005282	0.03287369996542111
0	22.333575600001495	stim	86		2	unambiguous_practice	left_practice	0.0	preferred_right	100.0	98.0		27.31646980001824	0.03386660001706332
0	22.36744220001856	stim	87		2	unambiguous_practice	left_practice	0.0	preferred_right	100.0	98.0		27.350336400035303	0.03340379998553544
0	22.400846000004094	stim	88		2	unambiguous_practice	left_practice	0.0	preferred_right	100.0	98.0		27.38374020002084	0.033314800006337464
0	22.43416080001043	stim	89		2	unambiguous_practice	left_practice	0.0	preferred_right	100.0	98.0		27.417055000027176	0.03370379999978468
0	22.467864600010216	stim	90		2	unambiguous_practice	left_practice	0.0	preferred_right	100.0	98.0		27.45075880002696	0.03325929999118671
0	22.501123900001403	stim	91		2	unambiguous_practice	left_practice	0.0	preferred_right	100.0	98.0		27.484018100018147	0.03319550002925098
0	22.534319400030654	stim	92		2	unambiguous_practice	left_practice	0.0	preferred_right	100.0	98.0		27.5172136000474	0.03311989997746423
0	22.567439300008118	stim	93		2	unambiguous_practice	left_practice	0.0	preferred_right	100.0	98.0		27.550333500024863	0.03323679999448359
0	22.6006761000026	stim	94		2	unambiguous_practice	left_practice	0.0	preferred_right	100.0	98.0		27.583570300019346	0.03406239999458194
0	22.634738499997184	stim	95		2	unambiguous_practice	left_practice	0.0	preferred_right	100.0	98.0		27.617632700013928	0.03322610002942383
0	22.667964600026608	stim	96		2	unambiguous_practice	left_practice	0.0	preferred_right	100.0	98.0		27.650858800043352	0.03331339999567717
0	22.701278000022285	stim	97		2	unambiguous_practice	left_practice	0.0	preferred_right	100.0	98.0		27.68417220003903	0.03308389999438077
0	22.734361900016665	stim	98		2	unambiguous_practice	left_practice	0.0	preferred_right	100.0	98.0		27.71725610003341	0.033752999966964126
0	22.76811489998363	stim	99		2	unambiguous_practice	left_practice	0.0	preferred_right	100.0	98.0		27.751009100000374	0.033179900026880205
0	22.80129480001051	stim	0		2	unambiguous_practice	left_practice	0.0	preferred_right	75.0	8.0		27.784189000027254	0.033474800002295524
0	22.834769600012805	stim	1		2	unambiguous_practice	left_practice	0.0	preferred_right	75.0	8.0		27.81766380002955	0.033264099969528615
0	22.868033699982334	stim	2		2	unambiguous_practice	left_practice	0.0	preferred_right	75.0	8.0		27.85092789999908	0.03333300002850592
0	22.90136670001084	stim	3		2	unambiguous_practice	left_practice	0.0	preferred_right	75.0	8.0		27.884260900027584	0.03339380002580583
0	22.934760500036646	stim	4		2	unambiguous_practice	left_practice	0.0	preferred_right	75.0	8.0		27.91765470005339	0.03366779995849356
0	22.96842829999514	stim	5		2	unambiguous_practice	left_practice	0.0	preferred_right	75.0	8.0		27.951322500011884	0.03370940004242584
0	23.002137700037565	stim	6		2	unambiguous_practice	left_practice	0.0	preferred_right	75.0	8.0		27.98503190005431	0.03336429997580126
0	23.035502000013366	stim	7		2	unambiguous_practice	left_practice	0.0	preferred_right	75.0	8.0		28.01839620003011	0.033410899981390685
0	23.068912899994757	stim	8		2	unambiguous_practice	left_practice	0.0	preferred_right	75.0	8.0		28.0518071000115	0.03304549999302253
0	23.10195839998778	stim	9		2	unambiguous_practice	left_practice	0.0	preferred_right	75.0	8.0		28.084852600004524	0.033501200028695166
0	23.135459600016475	stim	10		2	unambiguous_practice	left_practice	0.0	preferred_right	75.0	8.0		28.11835380003322	0.033421800006181
0	23.168881400022656	stim	11		2	unambiguous_practice	left_practice	0.0	preferred_right	75.0	8.0		28.1517756000394	0.03335819998756051
0	23.202239600010216	stim	12		2	unambiguous_practice	left_practice	0.0	preferred_right	75.0	8.0		28.18513380002696	0.03334620001260191
0	23.235585800022818	stim	13		2	unambiguous_practice	left_practice	0.0	preferred_right	75.0	8.0		28.218480000039563	0.03354779997607693
0	23.269133599998895	stim	14		2	unambiguous_practice	left_practice	0.0	preferred_right	75.0	8.0		28.25202780001564	0.03268240002216771
0	23.301816000021063	stim	15		2	unambiguous_practice	left_practice	0.0	preferred_right	75.0	8.0		28.284710200037807	0.033895200002007186
0	23.33571120002307	stim	16		2	unambiguous_practice	left_practice	0.0	preferred_right	75.0	8.0		28.318605400039814	0.033495399984531105
0	23.3692066000076	stim	17		2	unambiguous_practice	left_practice	0.0	preferred_right	75.0	8.0		28.352100800024346	0.03340299997944385
0	23.402609599987045	stim	18		2	unambiguous_practice	left_practice	0.0	preferred_right	75.0	8.0		28.38550380000379	0.033529600012116134
0	23.43613919999916	stim	19		2	unambiguous_practice	left_practice	0.0	preferred_right	75.0	8.0		28.419033400015905	0.03343640000093728
0	23.4695756000001	stim	20		2	unambiguous_practice	left_practice	0.0	preferred_right	75.0	8.0		28.452469800016843	0.03311980003491044
0	23.50269540003501	stim	21		2	unambiguous_practice	left_practice	0.0	preferred_right	75.0	8.0		28.485589600051753	0.03304589999606833
0	23.535741300031077	stim	22		2	unambiguous_practice	left_practice	0.0	preferred_right	75.0	8.0		28.51863550004782	0.03397140000015497
0	23.569712700031232	stim	23		2	unambiguous_practice	left_practice	0.0	preferred_right	75.0	8.0		28.552606900047977	0.033212399983312935
0	23.602925100014545	stim	24		2	unambiguous_practice	left_practice	0.0	preferred_right	75.0	8.0		28.58581930003129	0.03343800001312047
0	23.636363100027665	stim	25		2	unambiguous_practice	left_practice	0.0	preferred_right	75.0	8.0		28.61925730004441	0.03350019996287301
0	23.66986329999054	stim	26		2	unambiguous_practice	left_practice	0.0	preferred_right	75.0	8.0		28.652757500007283	0.03305349999573082
0	23.70291679998627	stim	27		2	unambiguous_practice	left_practice	0.0	preferred_right	75.0	8.0		28.685811000003014	0.03375820000655949
0	23.73667499999283	stim	28		2	unambiguous_practice	left_practice	0.0	preferred_right	75.0	8.0		28.719569200009573	0.03331200004322454
0	23.769987000036053	stim	29		2	unambiguous_practice	left_practice	0.0	preferred_right	75.0	8.0		28.752881200052798	0.032821399974636734
0	23.80280840001069	stim	30		2	unambiguous_practice	left_practice	0.0	preferred_right	75.0	8.0		28.785702600027435	0.03443220001645386
0	23.837240600027144	stim	31		2	unambiguous_practice	left_practice	0.0	preferred_right	75.0	8.0		28.82013480004389	0.03334939997876063
0	23.870590000005905	stim	32		2	unambiguous_practice	left_practice	0.0	preferred_right	75.0	8.0		28.85348420002265	0.03327810001792386
0	23.90386810002383	stim	33		2	unambiguous_practice	left_practice	0.0	preferred_right	75.0	8.0		28.886762300040573	0.03381759999319911
0	23.937685700017028	stim	34		2	unambiguous_practice	left_practice	0.0	preferred_right	75.0	8.0		28.920579900033772	0.03327279997756705
0	23.970958499994595	stim	35		2	unambiguous_practice	left_practice	0.0	preferred_right	75.0	8.0		28.95385270001134	0.033538400020916015
0	24.00449690001551	stim	36		2	unambiguous_practice	left_practice	0.0	preferred_right	75.0	8.0		28.987391100032255	0.03331379999872297
0	24.037810700014234	stim	37		2	unambiguous_practice	left_practice	0.0	preferred_right	75.0	8.0		29.020704900030978	0.03274459997192025
0	24.070555299986154	stim	38		2	unambiguous_practice	left_practice	0.0	preferred_right	75.0	8.0		29.0534495000029	0.03380600002128631
0	24.10436130000744	stim	39		2	unambiguous_practice	left_practice	0.0	preferred_right	75.0	8.0		29.087255500024185	0.0338196000084281
0	24.13818090001587	stim	40		2	unambiguous_practice	left_practice	0.0	preferred_right	75.0	8.0		29.121075100032613	0.03328279999550432
0	24.171463700011373	stim	41		2	unambiguous_practice	left_practice	0.0	preferred_right	75.0	8.0		29.154357900028117	0.03341289999661967
0	24.204876600007992	stim	42		2	unambiguous_practice	left_practice	0.0	preferred_right	75.0	8.0		29.187770800024737	0.033416900027077645
0	24.23829350003507	stim	43		2	unambiguous_practice	left_practice	0.0	preferred_right	75.0	8.0		29.221187700051814	0.033358999993652105
0	24.271652500028722	stim	44		2	unambiguous_practice	left_practice	0.0	preferred_right	75.0	8.0		29.254546700045466	0.033086199953686446
0	24.30473869998241	stim	45		2	unambiguous_practice	left_practice	0.0	preferred_right	75.0	8.0		29.287632899999153	0.03342990000965074
0	24.33816859999206	stim	46		2	unambiguous_practice	left_practice	0.0	preferred_right	75.0	8.0		29.321062800008804	0.034040800004731864
0	24.37220939999679	stim	47		2	unambiguous_practice	left_practice	0.0	preferred_right	75.0	8.0		29.355103600013535	0.03390500001842156
0	24.406114400015213	stim	48		2	unambiguous_practice	left_practice	0.0	preferred_right	75.0	8.0		29.389008600031957	0.03319669998018071
0	24.439311099995393	stim	49		2	unambiguous_practice	left_practice	0.0	preferred_right	75.0	8.0		29.422205300012138	0.03331209998577833
0	24.47262319998117	stim	50		2	unambiguous_practice	left_practice	0.0	preferred_right	75.0	8.0		29.455517399997916	0.03390940005192533
0	24.506532600033097	stim	51		2	unambiguous_practice	left_practice	0.0	preferred_right	75.0	8.0		29.48942680004984	0.03341309999814257
0	24.53994570003124	stim	52		2	unambiguous_practice	left_practice	0.0	preferred_right	75.0	8.0		29.522839900047984	0.032995999965351075
0	24.57294169999659	stim	53		2	unambiguous_practice	left_practice	0.0	preferred_right	75.0	8.0		29.555835900013335	0.033369700016919523
0	24.60631140001351	stim	54		2	unambiguous_practice	left_practice	0.0	preferred_right	75.0	8.0		29.589205600030255	0.033988900016993284
0	24.640300300030503	stim	55		2	unambiguous_practice	left_practice	0.0	preferred_right	75.0	8.0		29.623194500047248	0.03317849995801225
0	24.673478799988516	stim	56		2	unambiguous_practice	left_practice	0.0	preferred_right	75.0	8.0		29.65637300000526	0.03379680000944063
0	24.707275599997956	stim	57		2	unambiguous_practice	left_practice	0.0	preferred_right	75.0	8.0		29.6901698000147	0.03318940004101023
0	24.740465000038967	stim	58		2	unambiguous_practice	left_practice	0.0	preferred_right	75.0	8.0		29.72335920005571	0.033359099994413555
0	24.77382410003338	stim	59		2	unambiguous_practice	left_practice	0.0	preferred_right	75.0	8.0		29.756718300050125	0.0332662999862805
0	24.80709040001966	stim	60		2	unambiguous_practice	left_practice	0.0	preferred_right	75.0	8.0		29.789984600036405	0.033649599994532764
0	24.840740000014193	stim	61		2	unambiguous_practice	left_practice	0.0	preferred_right	75.0	8.0		29.823634200030938	0.03371230000630021
0	24.874452300020494	stim	62		2	unambiguous_practice	left_practice	0.0	preferred_right	75.0	8.0		29.857346500037238	0.03344450000440702
0	24.9078968000249	stim	63		2	unambiguous_practice	left_practice	0.0	preferred_right	75.0	8.0		29.890791000041645	0.03341039997758344
0	24.941307200002484	stim	64		2	unambiguous_practice	left_practice	0.0	preferred_right	75.0	8.0		29.92420140001923	0.033233200025279075
0	24.974540400027763	stim	65		2	unambiguous_practice	left_practice	0.0	preferred_right	75.0	8.0		29.957434600044508	0.0499893999658525
0	25.024529799993616	stim	66		2	unambiguous_practice	left_practice	0.0	preferred_right	75.0	8.0		30.00742400001036	0.03324690001318231
0	25.057776700006798	stim	67		2	unambiguous_practice	left_practice	0.0	preferred_right	75.0	8.0		30.040670900023542	0.033240600023418665
0	25.091017300030217	stim	68		2	unambiguous_practice	left_practice	0.0	preferred_right	75.0	8.0		30.07391150004696	0.033290899998974055
0	25.12430820002919	stim	69		2	unambiguous_practice	left_practice	0.0	preferred_right	75.0	8.0		30.107202400045935	0.03380989999277517
0	25.158118100021966	stim	70		2	unambiguous_practice	left_practice	0.0	preferred_right	75.0	8.0		30.14101230003871	0.033366399991791695
0	25.191484500013757	stim	71		2	unambiguous_practice	left_practice	0.0	preferred_right	75.0	8.0		30.174378700030502	0.0332862000213936
0	25.22477070003515	stim	72		2	unambiguous_practice	left_practice	0.0	preferred_right	75.0	8.0		30.207664900051896	0.03328589996090159
0	25.258056599996053	stim	73		2	unambiguous_practice	left_practice	0.0	preferred_right	75.0	8.0		30.240950800012797	0.033522300014737993
0	25.29157890001079	stim	74		2	unambiguous_practice	left_practice	0.0	preferred_right	75.0	8.0		30.274473100027535	0.03270500001963228
0	25.324283900030423	stim	0		2	unambiguous_practice	left_practice	0.0	preferred_right	25.0	83.0		30.307178100047167	0.03396969998721033
0	25.358253600017633	stim	1		2	unambiguous_practice	left_practice	0.0	preferred_right	25.0	83.0		30.341147800034378	0.033285100013017654
0	25.39153870003065	stim	2		2	unambiguous_practice	left_practice	0.0	preferred_right	25.0	83.0		30.374432900047395	0.03337560000363737
0	25.42491430003429	stim	3		2	unambiguous_practice	left_practice	0.0	preferred_right	25.0	83.0		30.407808500051033	0.03319329995429143
0	25.45810759998858	stim	4		2	unambiguous_practice	left_practice	0.0	preferred_right	25.0	83.0		30.441001800005324	0.033246700011659414
0	25.49135430000024	stim	5		2	unambiguous_practice	left_practice	0.0	preferred_right	25.0	83.0		30.474248500016984	0.033796000003349036
0	25.525150300003588	stim	6		2	unambiguous_practice	left_practice	0.0	preferred_right	25.0	83.0		30.508044500020333	0.03370460000587627
0	25.558854900009464	stim	7		2	unambiguous_practice	left_practice	0.0	preferred_right	25.0	83.0		30.54174910002621	0.03338939999230206
0	25.592244300001767	stim	8		2	unambiguous_practice	left_practice	0.0	preferred_right	25.0	83.0		30.57513850001851	0.05012540001189336
0	25.64236970001366	stim	9		2	unambiguous_practice	left_practice	0.0	preferred_right	25.0	83.0		30.625263900030404	0.05014790000859648
0	25.692517600022256	stim	10		2	unambiguous_practice	left_practice	0.0	preferred_right	25.0	83.0		30.675411800039	0.05005849996814504
0	25.7425760999904	stim	11		2	unambiguous_practice	left_practice	0.0	preferred_right	25.0	83.0		30.725470300007146	0.04957200004719198
0	25.792148100037593	stim	12		2	unambiguous_practice	left_practice	0.0	preferred_right	25.0	83.0		30.775042300054338	0.050044899981003255
0	25.842193000018597	stim	13		2	unambiguous_practice	left_practice	0.0	preferred_right	25.0	83.0		30.82508720003534	0.03346180001972243
0	25.87565480003832	stim	14		2	unambiguous_practice	left_practice	0.0	preferred_right	25.0	83.0		30.858549000055064	0.03333279996877536
0	25.908987600007094	stim	15		2	unambiguous_practice	left_practice	0.0	preferred_right	25.0	83.0		30.89188180002384	0.033001900010276586
0	25.94198950001737	stim	16		2	unambiguous_practice	left_practice	0.0	preferred_right	25.0	83.0		30.924883700034115	0.03384879999794066
0	25.97583830001531	stim	17		2	unambiguous_practice	left_practice	0.0	preferred_right	25.0	83.0		30.958732500032056	0.033252399996854365
0	26.009090700012166	stim	18		2	unambiguous_practice	left_practice	0.0	preferred_right	25.0	83.0		30.99198490002891	0.033382599998731166
0	26.042473300010897	stim	19		2	unambiguous_practice	left_practice	0.0	preferred_right	25.0	83.0		31.02536750002764	0.0327023999998346
0	26.075175700010732	stim	20		2	unambiguous_practice	left_practice	0.0	preferred_right	25.0	83.0		31.058069900027476	0.033955999999307096
0	26.10913170001004	stim	21		2	unambiguous_practice	left_practice	0.0	preferred_right	25.0	83.0		31.092025900026783	0.033324900025036186
0	26.142456600035075	stim	22		2	unambiguous_practice	left_practice	0.0	preferred_right	25.0	83.0		31.12535080005182	0.03329920000396669
0	26.175755800039042	stim	23		2	unambiguous_practice	left_practice	0.0	preferred_right	25.0	83.0		31.158650000055786	0.033394699974451214
0	26.209150500013493	stim	24		2	unambiguous_practice	left_practice	0.0	preferred_right	25.0	83.0		31.192044700030237	3.6002336000092328
0	29.809384100022726	stim	0		0	break	break	0.0	preferred_right	1.0	0.0		34.79227830003947	0.08334199996897951
