trial_nr	onset	event_type	phase	response	nr_frames	block_type	trial_type	block_ID	response_hand	phase_length	last_frame	key_duration	onset_abs	duration
0	0.011573700001463294	stim	0		0	ambiguous_practice	ambiguous_practice	0.0	preferred_right	3600.0	0.0		7.727056000032462	5.37198629998602
0	5.383559999987483	ambiguous_practice	0	space	1	ambiguous_practice	ambiguous_practice	0.0	preferred_right	3600.0	0.0	0.0897341999807395	13.099042300018482	-5.305149799969513
0	0.07841020001797006	stim	1		0	ambiguous_practice	ambiguous_practice	0.0	preferred_right	3600.0	0.0		7.793892500048969	6.442858799942769
0	6.521268999960739	ambiguous_practice	1	space	2	ambiguous_practice	ambiguous_practice	0.0	preferred_right	3600.0	0.0	0.08464230003301054	14.236751299991738	-6.39252019993728
0	0.1287488000234589	stim	2		2	ambiguous_practice	ambiguous_practice	0.0	preferred_right	3600.0	0.0		7.844231100054458	0.032646499981638044
0	0.16139530000509694	stim	3		2	ambiguous_practice	ambiguous_practice	0.0	preferred_right	3600.0	0.0		7.876877600036096	0.03356850001728162
0	0.19496380002237856	stim	4		2	ambiguous_practice	ambiguous_practice	0.0	preferred_right	3600.0	0.0		7.9104461000533774	0.033876299974508584
0	0.22884009999688715	stim	5		2	ambiguous_practice	ambiguous_practice	0.0	preferred_right	3600.0	0.0		7.944322400027886	0.03330230002757162
0	0.26214240002445877	stim	6		2	ambiguous_practice	ambiguous_practice	0.0	preferred_right	3600.0	0.0		7.977624700055458	0.03334359999280423
0	0.295486000017263	stim	7		2	ambiguous_practice	ambiguous_practice	0.0	preferred_right	3600.0	0.0		8.010968300048262	0.033394699974451214
0	0.3288806999917142	stim	8		2	ambiguous_practice	ambiguous_practice	0.0	preferred_right	3600.0	0.0		8.044363000022713	0.03322029998525977
0	0.362100999976974	stim	9		2	ambiguous_practice	ambiguous_practice	0.0	preferred_right	3600.0	0.0		8.077583300007973	0.033576900023035705
0	0.3956779000000097	stim	10		2	ambiguous_practice	ambiguous_practice	0.0	preferred_right	3600.0	0.0		8.111160200031009	0.033612200000789016
0	0.4292901000007987	stim	11		2	ambiguous_practice	ambiguous_practice	0.0	preferred_right	3600.0	0.0		8.144772400031798	0.0335893000010401
0	0.4628794000018388	stim	12		2	ambiguous_practice	ambiguous_practice	0.0	preferred_right	3600.0	0.0		8.178361700032838	0.03363000001991168
0	0.4965094000217505	stim	13		2	ambiguous_practice	ambiguous_practice	0.0	preferred_right	3600.0	0.0		8.21199170005275	0.033383599948138
0	0.5298929999698885	stim	14		2	ambiguous_practice	ambiguous_practice	0.0	preferred_right	3600.0	0.0		8.245375300000887	0.03328030003467575
0	0.5631733000045642	stim	15		2	ambiguous_practice	ambiguous_practice	0.0	preferred_right	3600.0	0.0		8.278655600035563	0.033962099987547845
0	0.5971353999921121	stim	16		2	ambiguous_practice	ambiguous_practice	0.0	preferred_right	3600.0	0.0		8.312617700023111	0.03404020000016317
0	0.6311755999922752	stim	17		2	ambiguous_practice	ambiguous_practice	0.0	preferred_right	3600.0	0.0		8.346657900023274	0.03400179999880493
0	0.6651773999910802	stim	18		2	ambiguous_practice	ambiguous_practice	0.0	preferred_right	3600.0	0.0		8.380659700022079	0.033828700019512326
0	0.6990061000105925	stim	19		2	ambiguous_practice	ambiguous_practice	0.0	preferred_right	3600.0	0.0		8.414488400041591	0.033597700006794184
0	0.7326038000173867	stim	20		2	ambiguous_practice	ambiguous_practice	0.0	preferred_right	3600.0	0.0		8.448086100048386	0.039426099974662066
0	0.7720298999920487	stim	21		2	ambiguous_practice	ambiguous_practice	0.0	preferred_right	3600.0	0.0		8.487512200023048	0.04426170000806451
0	0.8162916000001132	stim	22		2	ambiguous_practice	ambiguous_practice	0.0	preferred_right	3600.0	0.0		8.531773900031112	0.03339519997825846
0	0.8496867999783717	stim	23		2	ambiguous_practice	ambiguous_practice	0.0	preferred_right	3600.0	0.0		8.56516910000937	0.033655500039458275
0	0.88334230001783	stim	24		2	ambiguous_practice	ambiguous_practice	0.0	preferred_right	3600.0	0.0		8.598824600048829	0.033378399966750294
0	0.9167206999845803	stim	25		2	ambiguous_practice	ambiguous_practice	0.0	preferred_right	3600.0	0.0		8.63220300001558	0.03330640000058338
0	0.9500270999851637	stim	26		2	ambiguous_practice	ambiguous_practice	0.0	preferred_right	3600.0	0.0		8.665509400016163	0.03339789999881759
0	0.9834249999839813	stim	27		2	ambiguous_practice	ambiguous_practice	0.0	preferred_right	3600.0	0.0		8.69890730001498	0.03367830003844574
0	1.017103300022427	stim	28		2	ambiguous_practice	ambiguous_practice	0.0	preferred_right	3600.0	0.0		8.732585600053426	0.033582799951545894
0	1.0506860999739729	stim	29		2	ambiguous_practice	ambiguous_practice	0.0	preferred_right	3600.0	0.0		8.766168400004972	0.03559390001464635
0	1.0862799999886192	stim	30		2	ambiguous_practice	ambiguous_practice	0.0	preferred_right	3600.0	0.0		8.801762300019618	0.03362310002557933
0	1.1199031000141986	stim	31		2	ambiguous_practice	ambiguous_practice	0.0	preferred_right	3600.0	0.0		8.835385400045197	0.03324669995345175
0	1.1531497999676503	stim	32		2	ambiguous_practice	ambiguous_practice	0.0	preferred_right	3600.0	0.0		8.86863209999865	0.030799900006968528
0	1.1839496999746189	stim	33		2	ambiguous_practice	ambiguous_practice	0.0	preferred_right	3600.0	0.0		8.899432000005618	0.0332744000479579
0	1.2172241000225767	stim	34		2	ambiguous_practice	ambiguous_practice	0.0	preferred_right	3600.0	0.0		8.932706400053576	0.0362817999557592
0	1.253505899978336	stim	35		2	ambiguous_practice	ambiguous_practice	0.0	preferred_right	3600.0	0.0		8.968988200009335	0.033268900006078184
0	1.2867747999844141	stim	36		2	ambiguous_practice	ambiguous_practice	0.0	preferred_right	3600.0	0.0		9.002257100015413	0.033476200012955815
0	1.32025099999737	stim	37		2	ambiguous_practice	ambiguous_practice	0.0	preferred_right	3600.0	0.0		9.035733300028369	0.033333599974866956
0	1.353584599972237	stim	38		2	ambiguous_practice	ambiguous_practice	0.0	preferred_right	3600.0	0.0		9.069066900003236	0.03336440003477037
0	1.3869490000070073	stim	39		2	ambiguous_practice	ambiguous_practice	0.0	preferred_right	3600.0	0.0		9.102431300038006	0.033171000017318875
0	1.4201200000243261	stim	40		2	ambiguous_practice	ambiguous_practice	0.0	preferred_right	3600.0	0.0		9.135602300055325	0.033246299950405955
0	1.453366299974732	stim	41		2	ambiguous_practice	ambiguous_practice	0.0	preferred_right	3600.0	0.0		9.168848600005731	0.033864199998788536
0	1.4872304999735206	stim	42		2	ambiguous_practice	ambiguous_practice	0.0	preferred_right	3600.0	0.0		9.20271280000452	0.033248200023081154
0	1.5204786999966018	stim	43		2	ambiguous_practice	ambiguous_practice	0.0	preferred_right	3600.0	0.0		9.2359610000276	0.03288409998640418
0	1.553362799983006	stim	44		2	ambiguous_practice	ambiguous_practice	0.0	preferred_right	3600.0	0.0		9.268845100014005	0.03360780002549291
0	1.5869706000084989	stim	45		2	ambiguous_practice	ambiguous_practice	0.0	preferred_right	3600.0	0.0		9.302452900039498	0.03342749999137595
0	1.6203980999998748	stim	46		2	ambiguous_practice	ambiguous_practice	0.0	preferred_right	3600.0	0.0		9.335880400030874	0.033246500010136515
0	1.6536446000100113	stim	47		2	ambiguous_practice	ambiguous_practice	0.0	preferred_right	3600.0	0.0		9.36912690004101	0.03351189999375492
0	1.6871565000037663	stim	48		2	ambiguous_practice	ambiguous_practice	0.0	preferred_right	3600.0	0.0		9.402638800034765	0.03354380000382662
0	1.7207003000075929	stim	49		2	ambiguous_practice	ambiguous_practice	0.0	preferred_right	3600.0	0.0		9.436182600038592	0.03279520000796765
0	1.7534955000155605	stim	50		2	ambiguous_practice	ambiguous_practice	0.0	preferred_right	3600.0	0.0		9.46897780004656	0.03295789996627718
0	1.7864533999818377	stim	51		2	ambiguous_practice	ambiguous_practice	0.0	preferred_right	3600.0	0.0		9.501935700012837	0.033270200015977025
0	1.8197235999978147	stim	52		2	ambiguous_practice	ambiguous_practice	0.0	preferred_right	3600.0	0.0		9.535205900028814	0.03366070002084598
0	1.8533843000186607	stim	53		2	ambiguous_practice	ambiguous_practice	0.0	preferred_right	3600.0	0.0		9.56886660004966	0.03352619998622686
0	1.8869105000048876	stim	54		2	ambiguous_practice	ambiguous_practice	0.0	preferred_right	3600.0	0.0		9.602392800035886	0.03308859997196123
0	1.9199990999768488	stim	55		2	ambiguous_practice	ambiguous_practice	0.0	preferred_right	3600.0	0.0		9.635481400007848	0.03280230000382289
0	1.9528013999806717	stim	56		2	ambiguous_practice	ambiguous_practice	0.0	preferred_right	3600.0	0.0		9.66828370001167	0.03369780001230538
0	1.986499199992977	stim	57		2	ambiguous_practice	ambiguous_practice	0.0	preferred_right	3600.0	0.0		9.701981500023976	0.03413749998435378
0	2.020636699977331	stim	58		2	ambiguous_practice	ambiguous_practice	0.0	preferred_right	3600.0	0.0		9.73611900000833	0.03328860003966838
0	2.0539253000169992	stim	59		2	ambiguous_practice	ambiguous_practice	0.0	preferred_right	3600.0	0.0		9.769407600047998	0.0329488999559544
0	2.0868741999729536	stim	60		2	ambiguous_practice	ambiguous_practice	0.0	preferred_right	3600.0	0.0		9.802356500003953	0.03360620001330972
0	2.1204803999862634	stim	61		2	ambiguous_practice	ambiguous_practice	0.0	preferred_right	3600.0	0.0		9.835962700017262	0.0334100000327453
0	2.1538904000190087	stim	62		2	ambiguous_practice	ambiguous_practice	0.0	preferred_right	3600.0	0.0		9.869372700050008	0.03300759999547154
0	2.18689800001448	stim	63		2	ambiguous_practice	ambiguous_practice	0.0	preferred_right	3600.0	0.0		9.902380300045479	0.03336369997123256
0	2.2202616999857128	stim	64		2	ambiguous_practice	ambiguous_practice	0.0	preferred_right	3600.0	0.0		9.935744000016712	0.03324429999338463
0	2.2535059999790974	stim	65		2	ambiguous_practice	ambiguous_practice	0.0	preferred_right	3600.0	0.0		9.968988300010096	0.03379370004404336
0	2.2872997000231408	stim	66		2	ambiguous_practice	ambiguous_practice	0.0	preferred_right	3600.0	0.0		10.00278200005414	0.03337509999983013
0	2.320674800022971	stim	67		2	ambiguous_practice	ambiguous_practice	0.0	preferred_right	3600.0	0.0		10.03615710005397	0.03323419997468591
0	2.353908999997657	stim	68		2	ambiguous_practice	ambiguous_practice	0.0	preferred_right	3600.0	0.0		10.069391300028656	0.03339870000490919
0	2.387307700002566	stim	69		2	ambiguous_practice	ambiguous_practice	0.0	preferred_right	3600.0	0.0		10.102790000033565	0.03325649996986613
0	2.420564199972432	stim	70		2	ambiguous_practice	ambiguous_practice	0.0	preferred_right	3600.0	0.0		10.136046500003431	0.03338110004551709
0	2.453945300017949	stim	71		2	ambiguous_practice	ambiguous_practice	0.0	preferred_right	3600.0	0.0		10.169427600048948	0.03307999996468425
0	2.4870252999826334	stim	72		2	ambiguous_practice	ambiguous_practice	0.0	preferred_right	3600.0	0.0		10.202507600013632	0.03363720001652837
0	2.520662499999162	stim	73		2	ambiguous_practice	ambiguous_practice	0.0	preferred_right	3600.0	0.0		10.23614480003016	0.03314359998330474
0	2.5538060999824665	stim	74		2	ambiguous_practice	ambiguous_practice	0.0	preferred_right	3600.0	0.0		10.269288400013465	0.03323699999600649
0	2.587043099978473	stim	75		2	ambiguous_practice	ambiguous_practice	0.0	preferred_right	3600.0	0.0		10.302525400009472	0.03344319999450818
0	2.620486299972981	stim	76		2	ambiguous_practice	ambiguous_practice	0.0	preferred_right	3600.0	0.0		10.33596860000398	0.03327260003425181
0	2.653758900007233	stim	77		2	ambiguous_practice	ambiguous_practice	0.0	preferred_right	3600.0	0.0		10.369241200038232	0.03340119996573776
0	2.687160099972971	stim	78		2	ambiguous_practice	ambiguous_practice	0.0	preferred_right	3600.0	0.0		10.40264240000397	0.033821300021372736
0	2.7209813999943435	stim	79		2	ambiguous_practice	ambiguous_practice	0.0	preferred_right	3600.0	0.0		10.436463700025342	0.034038999991025776
0	2.7550203999853693	stim	80		2	ambiguous_practice	ambiguous_practice	0.0	preferred_right	3600.0	0.0		10.470502700016368	0.03336589998798445
0	2.7883862999733537	stim	81		2	ambiguous_practice	ambiguous_practice	0.0	preferred_right	3600.0	0.0		10.503868600004353	0.03349790000356734
0	2.821884199976921	stim	82		2	ambiguous_practice	ambiguous_practice	0.0	preferred_right	3600.0	0.0		10.53736650000792	0.03374030004488304
0	2.855624500021804	stim	83		2	ambiguous_practice	ambiguous_practice	0.0	preferred_right	3600.0	0.0		10.571106800052803	0.03325759997824207
0	2.888882100000046	stim	84		2	ambiguous_practice	ambiguous_practice	0.0	preferred_right	3600.0	0.0		10.604364400031045	0.03320689999964088
0	2.922088999999687	stim	85		2	ambiguous_practice	ambiguous_practice	0.0	preferred_right	3600.0	0.0		10.637571300030686	0.03293859999394044
0	2.9550275999936275	stim	86		2	ambiguous_practice	ambiguous_practice	0.0	preferred_right	3600.0	0.0		10.670509900024626	0.033262600016314536
0	2.988290200009942	stim	87		2	ambiguous_practice	ambiguous_practice	0.0	preferred_right	3600.0	0.0		10.703772500040941	0.03392600000370294
0	3.022216200013645	stim	88		2	ambiguous_practice	ambiguous_practice	0.0	preferred_right	3600.0	0.0		10.737698500044644	0.033434399985708296
0	3.0556505999993533	stim	89		2	ambiguous_practice	ambiguous_practice	0.0	preferred_right	3600.0	0.0		10.771132900030352	0.03319410001859069
0	3.088844700017944	stim	90		2	ambiguous_practice	ambiguous_practice	0.0	preferred_right	3600.0	0.0		10.804327000048943	0.033298099995590746
0	3.1221428000135347	stim	91		2	ambiguous_practice	ambiguous_practice	0.0	preferred_right	3600.0	0.0		10.837625100044534	0.03340539999771863
0	3.1555482000112534	stim	92		2	ambiguous_practice	ambiguous_practice	0.0	preferred_right	3600.0	0.0		10.871030500042252	0.03390229999786243
0	3.189450500009116	stim	93		2	ambiguous_practice	ambiguous_practice	0.0	preferred_right	3600.0	0.0		10.904932800040115	0.032778199994936585
0	3.2222287000040524	stim	94		2	ambiguous_practice	ambiguous_practice	0.0	preferred_right	3600.0	0.0		10.937711000035051	0.033419999992474914
0	3.2556486999965273	stim	95		2	ambiguous_practice	ambiguous_practice	0.0	preferred_right	3600.0	0.0		10.971131000027526	0.03353020001668483
0	3.289178900013212	stim	96		2	ambiguous_practice	ambiguous_practice	0.0	preferred_right	3600.0	0.0		11.004661200044211	0.03334639995591715
0	3.3225252999691293	stim	97		2	ambiguous_practice	ambiguous_practice	0.0	preferred_right	3600.0	0.0		11.038007600000128	0.03359950002050027
0	3.3561247999896295	stim	98		2	ambiguous_practice	ambiguous_practice	0.0	preferred_right	3600.0	0.0		11.071607100020628	0.03346340003190562
0	3.389588200021535	stim	99		2	ambiguous_practice	ambiguous_practice	0.0	preferred_right	3600.0	0.0		11.105070500052534	0.03329499997198582
0	3.422883199993521	stim	100		2	ambiguous_practice	ambiguous_practice	0.0	preferred_right	3600.0	0.0		11.13836550002452	0.03347989998292178
0	3.4563630999764428	stim	101		2	ambiguous_practice	ambiguous_practice	0.0	preferred_right	3600.0	0.0		11.171845400007442	0.03339200001209974
0	3.4897550999885425	stim	102		2	ambiguous_practice	ambiguous_practice	0.0	preferred_right	3600.0	0.0		11.205237400019541	0.0333482000278309
0	3.5231033000163734	stim	103		2	ambiguous_practice	ambiguous_practice	0.0	preferred_right	3600.0	0.0		11.238585600047372	0.033844899968244135
0	3.5569481999846175	stim	104		2	ambiguous_practice	ambiguous_practice	0.0	preferred_right	3600.0	0.0		11.272430500015616	0.049625399988144636
0	3.606573599972762	stim	105		2	ambiguous_practice	ambiguous_practice	0.0	preferred_right	3600.0	0.0		11.322055900003761	0.03361890005180612
0	3.6401925000245683	stim	106		2	ambiguous_practice	ambiguous_practice	0.0	preferred_right	3600.0	0.0		11.355674800055567	0.033392899960745126
0	3.6735853999853134	stim	107		2	ambiguous_practice	ambiguous_practice	0.0	preferred_right	3600.0	0.0		11.389067700016312	0.03330489998916164
0	3.706890299974475	stim	108		2	ambiguous_practice	ambiguous_practice	0.0	preferred_right	3600.0	0.0		11.422372600005474	0.0329570000176318
0	3.739847299992107	stim	109		2	ambiguous_practice	ambiguous_practice	0.0	preferred_right	3600.0	0.0		11.455329600023106	0.03393119998509064
0	3.7737784999771975	stim	110		2	ambiguous_practice	ambiguous_practice	0.0	preferred_right	3600.0	0.0		11.489260800008196	0.033287800033576787
0	3.8070663000107743	stim	111		2	ambiguous_practice	ambiguous_practice	0.0	preferred_right	3600.0	0.0		11.522548600041773	0.03337469999678433
0	3.8404410000075586	stim	112		2	ambiguous_practice	ambiguous_practice	0.0	preferred_right	3600.0	0.0		11.555923300038557	0.03349609998986125
0	3.87393709999742	stim	113		2	ambiguous_practice	ambiguous_practice	0.0	preferred_right	3600.0	0.0		11.589419400028419	0.03327429998898879
0	3.9072113999864087	stim	114		2	ambiguous_practice	ambiguous_practice	0.0	preferred_right	3600.0	0.0		11.622693700017408	0.0332979999948293
0	3.940509399981238	stim	115		2	ambiguous_practice	ambiguous_practice	0.0	preferred_right	3600.0	0.0		11.655991700012237	0.03300910000689328
0	3.9735184999881312	stim	116		2	ambiguous_practice	ambiguous_practice	0.0	preferred_right	3600.0	0.0		11.68900080001913	0.03381180000724271
0	4.007330299995374	stim	117		2	ambiguous_practice	ambiguous_practice	0.0	preferred_right	3600.0	0.0		11.722812600026373	0.03311379998922348
0	4.040444099984597	stim	118		2	ambiguous_practice	ambiguous_practice	0.0	preferred_right	3600.0	0.0		11.755926400015596	0.0337878999998793
0	4.074231999984477	stim	119		2	ambiguous_practice	ambiguous_practice	0.0	preferred_right	3600.0	0.0		11.789714300015476	0.033277500013355166
0	4.107509499997832	stim	120		2	ambiguous_practice	ambiguous_practice	0.0	preferred_right	3600.0	0.0		11.82299180002883	0.033403599984012544
0	4.140913099981844	stim	121		2	ambiguous_practice	ambiguous_practice	0.0	preferred_right	3600.0	0.0		11.856395400012843	0.033344299998134375
0	4.174257399979979	stim	122		2	ambiguous_practice	ambiguous_practice	0.0	preferred_right	3600.0	0.0		11.889739700010978	0.03328410000540316
0	4.207541499985382	stim	123		2	ambiguous_practice	ambiguous_practice	0.0	preferred_right	3600.0	0.0		11.92302380001638	0.03301790001569316
0	4.240559400001075	stim	124		2	ambiguous_practice	ambiguous_practice	0.0	preferred_right	3600.0	0.0		11.956041700032074	0.0337318999809213
0	4.274291299981996	stim	125		2	ambiguous_practice	ambiguous_practice	0.0	preferred_right	3600.0	0.0		11.989773600012995	0.033796000003349036
0	4.3080872999853455	stim	126		2	ambiguous_practice	ambiguous_practice	0.0	preferred_right	3600.0	0.0		12.023569600016344	0.03335570002673194
0	4.341443000012077	stim	127		2	ambiguous_practice	ambiguous_practice	0.0	preferred_right	3600.0	0.0		12.056925300043076	0.033397599996533245
0	4.374840600008611	stim	128		2	ambiguous_practice	ambiguous_practice	0.0	preferred_right	3600.0	0.0		12.09032290003961	0.03330680000362918
0	4.40814740001224	stim	129		2	ambiguous_practice	ambiguous_practice	0.0	preferred_right	3600.0	0.0		12.123629700043239	0.03370209998684004
0	4.44184949999908	stim	130		2	ambiguous_practice	ambiguous_practice	0.0	preferred_right	3600.0	0.0		12.157331800030079	0.03299500001594424
0	4.474844500015024	stim	131		2	ambiguous_practice	ambiguous_practice	0.0	preferred_right	3600.0	0.0		12.190326800046023	0.033300999959465116
0	4.508145499974489	stim	132		2	ambiguous_practice	ambiguous_practice	0.0	preferred_right	3600.0	0.0		12.223627800005488	0.033895400003530085
0	4.542040899978019	stim	133		2	ambiguous_practice	ambiguous_practice	0.0	preferred_right	3600.0	0.0		12.257523200009018	0.03356250002980232
0	4.575603400007822	stim	134		2	ambiguous_practice	ambiguous_practice	0.0	preferred_right	3600.0	0.0		12.29108570003882	0.03360989998327568
0	4.609213299991097	stim	135		2	ambiguous_practice	ambiguous_practice	0.0	preferred_right	3600.0	0.0		12.324695600022096	0.032837999984622
0	4.642051299975719	stim	136		2	ambiguous_practice	ambiguous_practice	0.0	preferred_right	3600.0	0.0		12.357533600006718	0.03359250002540648
0	4.675643800001126	stim	137		2	ambiguous_practice	ambiguous_practice	0.0	preferred_right	3600.0	0.0		12.391126100032125	0.03337869996903464
0	4.70902249997016	stim	138		2	ambiguous_practice	ambiguous_practice	0.0	preferred_right	3600.0	0.0		12.42450480000116	0.03335209999931976
0	4.74237459996948	stim	139		2	ambiguous_practice	ambiguous_practice	0.0	preferred_right	3600.0	0.0		12.457856900000479	0.03332880005473271
0	4.775703400024213	stim	140		2	ambiguous_practice	ambiguous_practice	0.0	preferred_right	3600.0	0.0		12.491185700055212	0.03308519994607195
0	4.808788599970285	stim	141		2	ambiguous_practice	ambiguous_practice	0.0	preferred_right	3600.0	0.0		12.524270900001284	0.03364690003218129
0	4.842435500002466	stim	142		2	ambiguous_practice	ambiguous_practice	0.0	preferred_right	3600.0	0.0		12.557917800033465	0.033290899998974055
0	4.87572640000144	stim	143		2	ambiguous_practice	ambiguous_practice	0.0	preferred_right	3600.0	0.0		12.591208700032439	0.03337730001658201
0	4.909103700018022	stim	144		2	ambiguous_practice	ambiguous_practice	0.0	preferred_right	3600.0	0.0		12.624586000049021	0.033369299955666065
0	4.942472999973688	stim	145		2	ambiguous_practice	ambiguous_practice	0.0	preferred_right	3600.0	0.0		12.657955300004687	0.03294350003125146
0	4.97541650000494	stim	146		2	ambiguous_practice	ambiguous_practice	0.0	preferred_right	3600.0	0.0		12.690898800035939	0.03408399998443201
0	5.009500499989372	stim	147		2	ambiguous_practice	ambiguous_practice	0.0	preferred_right	3600.0	0.0		12.72498280002037	0.03333300002850592
0	5.042833500017878	stim	148		2	ambiguous_practice	ambiguous_practice	0.0	preferred_right	3600.0	0.0		12.758315800048877	0.03364979999605566
0	5.076483300013933	stim	149		2	ambiguous_practice	ambiguous_practice	0.0	preferred_right	3600.0	0.0		12.791965600044932	0.033218199969269335
0	5.109701499983203	stim	150		2	ambiguous_practice	ambiguous_practice	0.0	preferred_right	3600.0	0.0		12.825183800014202	0.03363140003057197
0	5.143332900013775	stim	151		2	ambiguous_practice	ambiguous_practice	0.0	preferred_right	3600.0	0.0		12.858815200044774	0.03332399995997548
0	5.17665689997375	stim	152		2	ambiguous_practice	ambiguous_practice	0.0	preferred_right	3600.0	0.0		12.892139200004749	0.03301030001603067
0	5.209667199989781	stim	153		2	ambiguous_practice	ambiguous_practice	0.0	preferred_right	3600.0	0.0		12.92514950002078	0.033302900032140315
0	5.242970100021921	stim	154		2	ambiguous_practice	ambiguous_practice	0.0	preferred_right	3600.0	0.0		12.95845240005292	0.03388599999016151
0	5.276856100012083	stim	155		2	ambiguous_practice	ambiguous_practice	0.0	preferred_right	3600.0	0.0		12.992338400043081	0.033448099973611534
0	5.310304199985694	stim	156		2	ambiguous_practice	ambiguous_practice	0.0	preferred_right	3600.0	0.0		13.025786500016693	0.03319660003762692
0	5.343500800023321	stim	157		2	ambiguous_practice	ambiguous_practice	0.0	preferred_right	3600.0	0.0		13.05898310005432	0.033608099969569594
0	5.377108899992891	stim	158		2	ambiguous_practice	ambiguous_practice	0.0	preferred_right	3600.0	0.0		13.09259120002389	0.032982899982016534
0	5.410091799974907	stim	159		2	ambiguous_practice	ambiguous_practice	0.0	preferred_right	3600.0	0.0		13.125574100005906	0.03341440000804141
0	5.443506199982949	stim	160		2	ambiguous_practice	ambiguous_practice	0.0	preferred_right	3600.0	0.0		13.158988500013947	0.03323400003137067
0	5.476740200014319	stim	161		2	ambiguous_practice	ambiguous_practice	0.0	preferred_right	3600.0	0.0		13.192222500045318	0.03414529998553917
0	5.510885499999858	stim	162		2	ambiguous_practice	ambiguous_practice	0.0	preferred_right	3600.0	0.0		13.226367800030857	0.0329259000136517
0	5.54381140001351	stim	163		2	ambiguous_practice	ambiguous_practice	0.0	preferred_right	3600.0	0.0		13.259293700044509	0.03401139995548874
0	5.577822799968999	stim	164		2	ambiguous_practice	ambiguous_practice	0.0	preferred_right	3600.0	0.0		13.293305099999998	0.033431500021833926
0	5.611254299990833	stim	165		2	ambiguous_practice	ambiguous_practice	0.0	preferred_right	3600.0	0.0		13.326736600021832	0.03333950001979247
0	5.644593800010625	stim	166		2	ambiguous_practice	ambiguous_practice	0.0	preferred_right	3600.0	0.0		13.360076100041624	0.033553199958987534
0	5.678146999969613	stim	167		2	ambiguous_practice	ambiguous_practice	0.0	preferred_right	3600.0	0.0		13.393629300000612	0.033286500023677945
0	5.711433499993291	stim	168		2	ambiguous_practice	ambiguous_practice	0.0	preferred_right	3600.0	0.0		13.42691580002429	0.03327259997604415
0	5.744706099969335	stim	169		2	ambiguous_practice	ambiguous_practice	0.0	preferred_right	3600.0	0.0		13.460188400000334	0.033138099999632686
0	5.777844199968968	stim	170		2	ambiguous_practice	ambiguous_practice	0.0	preferred_right	3600.0	0.0		13.493326499999966	0.03377470001578331
0	5.811618899984751	stim	171		2	ambiguous_practice	ambiguous_practice	0.0	preferred_right	3600.0	0.0		13.52710120001575	0.03314240003237501
0	5.844761300017126	stim	172		2	ambiguous_practice	ambiguous_practice	0.0	preferred_right	3600.0	0.0		13.560243600048125	0.03346969996346161
0	5.8782309999805875	stim	173		2	ambiguous_practice	ambiguous_practice	0.0	preferred_right	3600.0	0.0		13.593713300011586	0.03336400003172457
0	5.911595000012312	stim	174		2	ambiguous_practice	ambiguous_practice	0.0	preferred_right	3600.0	0.0		13.627077300043311	0.03303980000782758
0	5.94463480002014	stim	175		2	ambiguous_practice	ambiguous_practice	0.0	preferred_right	3600.0	0.0		13.660117100051139	0.033472899987827986
0	5.978107700007968	stim	176		2	ambiguous_practice	ambiguous_practice	0.0	preferred_right	3600.0	0.0		13.693590000038967	0.03386739996494725
0	6.011975099972915	stim	177		0	ambiguous_practice	ambiguous_practice	0.0	preferred_right	3600.0	0.0		13.727457400003914	4.405657600029372
0	10.417632700002287	ambiguous_practice	177	i	2	ambiguous_practice	ambiguous_practice	0.0	preferred_right	3600.0	0.0	2.110851300007198	18.133115000033285	-4.355569600011222
0	6.0620630999910645	stim	178		2	ambiguous_practice	ambiguous_practice	0.0	preferred_right	3600.0	0.0		13.777545400022063	0.033173899981193244
0	6.095236999972258	stim	179		2	ambiguous_practice	ambiguous_practice	0.0	preferred_right	3600.0	0.0		13.810719300003257	0.03348120005102828
0	6.128718200023286	stim	180		2	ambiguous_practice	ambiguous_practice	0.0	preferred_right	3600.0	0.0		13.844200500054285	0.03329189994838089
0	6.162010099971667	stim	181		2	ambiguous_practice	ambiguous_practice	0.0	preferred_right	3600.0	0.0		13.877492400002666	0.03332590003265068
0	6.195336000004318	stim	182		2	ambiguous_practice	ambiguous_practice	0.0	preferred_right	3600.0	0.0		13.910818300035316	0.033505900006275624
0	6.228841900010593	stim	183		2	ambiguous_practice	ambiguous_practice	0.0	preferred_right	3600.0	0.0		13.944324200041592	0.03322509996360168
0	6.262066999974195	stim	184		2	ambiguous_practice	ambiguous_practice	0.0	preferred_right	3600.0	0.0		13.977549300005194	0.03396760002942756
0	6.2960346000036225	stim	185		2	ambiguous_practice	ambiguous_practice	0.0	preferred_right	3600.0	0.0		14.011516900034621	0.033387099974788725
0	6.329421699978411	stim	186		2	ambiguous_practice	ambiguous_practice	0.0	preferred_right	3600.0	0.0		14.04490400000941	0.03322470001876354
0	6.362646399997175	stim	187		2	ambiguous_practice	ambiguous_practice	0.0	preferred_right	3600.0	0.0		14.078128700028174	0.03386319999117404
0	6.396509599988349	stim	188		2	ambiguous_practice	ambiguous_practice	0.0	preferred_right	3600.0	0.0		14.111991900019348	0.03366680000908673
0	6.4301763999974355	stim	189		2	ambiguous_practice	ambiguous_practice	0.0	preferred_right	3600.0	0.0		14.145658700028434	0.03344430000288412
0	6.46362070000032	stim	190		2	ambiguous_practice	ambiguous_practice	0.0	preferred_right	3600.0	0.0		14.179103000031319	0.032879000005777925
0	6.4964997000060976	stim	191		2	ambiguous_practice	ambiguous_practice	0.0	preferred_right	3600.0	0.0		14.211982000037096	0.03407290001632646
0	6.530572600022424	stim	192		2	ambiguous_practice	ambiguous_practice	0.0	preferred_right	3600.0	0.0		14.246054900053423	0.03337999997893348
0	6.5639526000013575	stim	193		2	ambiguous_practice	ambiguous_practice	0.0	preferred_right	3600.0	0.0		14.279434900032356	0.033093800011556596
0	6.597046400012914	stim	194		2	ambiguous_practice	ambiguous_practice	0.0	preferred_right	3600.0	0.0		14.312528700043913	0.03354889998445287
0	6.630595299997367	stim	195		2	ambiguous_practice	ambiguous_practice	0.0	preferred_right	3600.0	0.0		14.346077600028366	0.0333286999957636
0	6.663923999993131	stim	196		2	ambiguous_practice	ambiguous_practice	0.0	preferred_right	3600.0	0.0		14.37940630002413	0.033520700002554804
0	6.697444699995685	stim	197		0	ambiguous_practice	ambiguous_practice	0.0	preferred_right	3600.0	0.0		14.412927000026684	6.3936882999842055
0	13.09113299997989	ambiguous_practice	197	n	2	ambiguous_practice	ambiguous_practice	0.0	preferred_right	3600.0	0.0	0.13212040002690628	20.80661530001089	-6.343738599971402
0	6.7473944000084884	stim	198		2	ambiguous_practice	ambiguous_practice	0.0	preferred_right	3600.0	0.0		14.462876700039487	0.0337195000029169
0	6.781113900011405	stim	199		2	ambiguous_practice	ambiguous_practice	0.0	preferred_right	3600.0	0.0		14.496596200042404	0.033293599961325526
0	6.814407499972731	stim	200		2	ambiguous_practice	ambiguous_practice	0.0	preferred_right	3600.0	0.0		14.52988980000373	0.033421800006181
0	6.847829299978912	stim	201		2	ambiguous_practice	ambiguous_practice	0.0	preferred_right	3600.0	0.0		14.56331160000991	0.03328550001606345
0	6.881114799994975	stim	202		2	ambiguous_practice	ambiguous_practice	0.0	preferred_right	3600.0	0.0		14.596597100025974	0.033637800021097064
0	6.914752600016072	stim	203		2	ambiguous_practice	ambiguous_practice	0.0	preferred_right	3600.0	0.0		14.630234900047071	0.033172499970532954
0	6.947925099986605	stim	204		2	ambiguous_practice	ambiguous_practice	0.0	preferred_right	3600.0	0.0		14.663407400017604	0.033261500007938594
0	6.981186599994544	stim	205		2	ambiguous_practice	ambiguous_practice	0.0	preferred_right	3600.0	0.0		14.696668900025543	0.03350189997581765
0	7.014688499970362	stim	206		2	ambiguous_practice	ambiguous_practice	0.0	preferred_right	3600.0	0.0		14.73017080000136	0.033406500006094575
0	7.048094999976456	stim	207		2	ambiguous_practice	ambiguous_practice	0.0	preferred_right	3600.0	0.0		14.763577300007455	0.03340860002208501
0	7.081503599998541	stim	208		2	ambiguous_practice	ambiguous_practice	0.0	preferred_right	3600.0	0.0		14.79698590002954	0.033454000018537045
0	7.114957600017078	stim	209		0	ambiguous_practice	ambiguous_practice	0.0	preferred_right	3600.0	0.0		14.830439900048077	6.349672099982854
0	13.464629699999932	ambiguous_practice	209	i	2	ambiguous_practice	ambiguous_practice	0.0	preferred_right	3600.0	0.0	0.15840559999924153	21.18011200003093	-6.29952990001766
0	7.165099799982272	stim	210		2	ambiguous_practice	ambiguous_practice	0.0	preferred_right	3600.0	0.0		14.880582100013271	0.033581399999093264
0	7.198681199981365	stim	211		2	ambiguous_practice	ambiguous_practice	0.0	preferred_right	3600.0	0.0		14.914163500012364	0.03352900000754744
0	7.232210199988913	stim	212		2	ambiguous_practice	ambiguous_practice	0.0	preferred_right	3600.0	0.0		14.947692500019912	0.03337429999373853
0	7.265584499982651	stim	213		2	ambiguous_practice	ambiguous_practice	0.0	preferred_right	3600.0	0.0		14.98106680001365	0.033405099995434284
0	7.298989599978086	stim	214		2	ambiguous_practice	ambiguous_practice	0.0	preferred_right	3600.0	0.0		15.014471900009084	0.03353650000644848
0	7.332526099984534	stim	215		2	ambiguous_practice	ambiguous_practice	0.0	preferred_right	3600.0	0.0		15.048008400015533	0.03328999999212101
0	7.365816099976655	stim	216		2	ambiguous_practice	ambiguous_practice	0.0	preferred_right	3600.0	0.0		15.081298400007654	0.03333900001598522
0	7.39915509999264	stim	217		2	ambiguous_practice	ambiguous_practice	0.0	preferred_right	3600.0	0.0		15.11463740002364	0.0337137000169605
0	7.432868800009601	stim	218		2	ambiguous_practice	ambiguous_practice	0.0	preferred_right	3600.0	0.0		15.1483511000406	0.03364420001162216
0	7.466513000021223	stim	219		0	ambiguous_practice	ambiguous_practice	0.0	preferred_right	3600.0	0.0		15.181995300052222	6.340272099943832
0	13.806785099965055	ambiguous_practice	219	n	2	ambiguous_practice	ambiguous_practice	0.0	preferred_right	3600.0	0.0	0.1844301000237465	21.522267399996053	-6.288526799995452
0	7.518258299969602	stim	220		2	ambiguous_practice	ambiguous_practice	0.0	preferred_right	3600.0	0.0		15.233740600000601	0.03165720001561567
0	7.549915499985218	stim	221		2	ambiguous_practice	ambiguous_practice	0.0	preferred_right	3600.0	0.0		15.265397800016217	0.033362200018018484
0	7.5832777000032365	stim	222		2	ambiguous_practice	ambiguous_practice	0.0	preferred_right	3600.0	0.0		15.298760000034235	0.0334090999676846
0	7.616686799970921	stim	223		2	ambiguous_practice	ambiguous_practice	0.0	preferred_right	3600.0	0.0		15.33216910000192	0.03327280003577471
0	7.649959600006696	stim	224		2	ambiguous_practice	ambiguous_practice	0.0	preferred_right	3600.0	0.0		15.365441900037695	0.0336377999628894
0	7.683597399969585	stim	225		2	ambiguous_practice	ambiguous_practice	0.0	preferred_right	3600.0	0.0		15.399079700000584	0.03353640000568703
0	7.717133799975272	stim	226		2	ambiguous_practice	ambiguous_practice	0.0	preferred_right	3600.0	0.0		15.432616100006271	0.03345170000102371
0	7.750585499976296	stim	227		2	ambiguous_practice	ambiguous_practice	0.0	preferred_right	3600.0	0.0		15.466067800007295	0.03629610000643879
0	7.786881599982735	stim	228		2	ambiguous_practice	ambiguous_practice	0.0	preferred_right	3600.0	0.0		15.502363900013734	0.03336890001082793
0	7.820250499993563	stim	229		2	ambiguous_practice	ambiguous_practice	0.0	preferred_right	3600.0	0.0		15.535732800024562	0.03320700000040233
0	7.853457499993965	stim	230		2	ambiguous_practice	ambiguous_practice	0.0	preferred_right	3600.0	0.0		15.568939800024964	0.033336799999233335
0	7.886794299993198	stim	231		2	ambiguous_practice	ambiguous_practice	0.0	preferred_right	3600.0	0.0		15.602276600024197	0.03326190001098439
0	7.920056200004183	stim	232		2	ambiguous_practice	ambiguous_practice	0.0	preferred_right	3600.0	0.0		15.635538500035182	0.033285200013779104
0	7.953341400017962	stim	233		2	ambiguous_practice	ambiguous_practice	0.0	preferred_right	3600.0	0.0		15.66882370004896	0.033038900000974536
0	7.986380300018936	stim	234		2	ambiguous_practice	ambiguous_practice	0.0	preferred_right	3600.0	0.0		15.701862600049935	0.03374339995207265
0	8.020123699971009	stim	235		2	ambiguous_practice	ambiguous_practice	0.0	preferred_right	3600.0	0.0		15.735606000002008	0.03416300000390038
0	8.05428669997491	stim	236		2	ambiguous_practice	ambiguous_practice	0.0	preferred_right	3600.0	0.0		15.769769000005908	0.03233120002551004
0	8.08661790000042	stim	237		2	ambiguous_practice	ambiguous_practice	0.0	preferred_right	3600.0	0.0		15.802100200031418	0.033708799979649484
0	8.120326699980069	stim	238		2	ambiguous_practice	ambiguous_practice	0.0	preferred_right	3600.0	0.0		15.835809000011068	0.03322670003399253
0	8.153553400014061	stim	239		2	ambiguous_practice	ambiguous_practice	0.0	preferred_right	3600.0	0.0		15.86903570004506	0.033437700010836124
0	8.186991100024898	stim	240		2	ambiguous_practice	ambiguous_practice	0.0	preferred_right	3600.0	0.0		15.902473400055896	0.03301179996924475
0	8.220002899994142	stim	241		2	ambiguous_practice	ambiguous_practice	0.0	preferred_right	3600.0	0.0		15.935485200025141	0.03285890002734959
0	8.252861800021492	stim	242		2	ambiguous_practice	ambiguous_practice	0.0	preferred_right	3600.0	0.0		15.96834410005249	0.033947099989745766
0	8.286808900011238	stim	243		2	ambiguous_practice	ambiguous_practice	0.0	preferred_right	3600.0	0.0		16.002291200042237	0.03367059997981414
0	8.320479499991052	stim	244		2	ambiguous_practice	ambiguous_practice	0.0	preferred_right	3600.0	0.0		16.03596180002205	0.03293270000722259
0	8.353412199998274	stim	245		2	ambiguous_practice	ambiguous_practice	0.0	preferred_right	3600.0	0.0		16.068894500029273	0.03325139998923987
0	8.386663599987514	stim	246		2	ambiguous_practice	ambiguous_practice	0.0	preferred_right	3600.0	0.0		16.102145900018513	0.033324900025036186
0	8.41998850001255	stim	247		2	ambiguous_practice	ambiguous_practice	0.0	preferred_right	3600.0	0.0		16.13547080004355	0.033341199974529445
0	8.45332969998708	stim	248		2	ambiguous_practice	ambiguous_practice	0.0	preferred_right	3600.0	0.0		16.16881200001808	0.03352240001549944
0	8.48685210000258	stim	249		2	ambiguous_practice	ambiguous_practice	0.0	preferred_right	3600.0	0.0		16.20233440003358	0.033327899989672005
0	8.520179999992251	stim	250		2	ambiguous_practice	ambiguous_practice	0.0	preferred_right	3600.0	0.0		16.23566230002325	0.03331500000786036
0	8.553495000000112	stim	251		2	ambiguous_practice	ambiguous_practice	0.0	preferred_right	3600.0	0.0		16.26897730003111	0.033104199974332005
0	8.586599199974444	stim	252		2	ambiguous_practice	ambiguous_practice	0.0	preferred_right	3600.0	0.0		16.302081500005443	0.033462700026575476
0	8.62006190000102	stim	253		2	ambiguous_practice	ambiguous_practice	0.0	preferred_right	3600.0	0.0		16.335544200032018	0.033527999999932945
0	8.653589900000952	stim	254		2	ambiguous_practice	ambiguous_practice	0.0	preferred_right	3600.0	0.0		16.36907220003195	0.03342749999137595
0	8.687017399992328	stim	255		2	ambiguous_practice	ambiguous_practice	0.0	preferred_right	3600.0	0.0		16.402499700023327	0.032999099988956004
0	8.720016499981284	stim	256		2	ambiguous_practice	ambiguous_practice	0.0	preferred_right	3600.0	0.0		16.435498800012283	0.03364450001390651
0	8.75366099999519	stim	257		2	ambiguous_practice	ambiguous_practice	0.0	preferred_right	3600.0	0.0		16.46914330002619	0.03357480000704527
0	8.787235800002236	stim	258		2	ambiguous_practice	ambiguous_practice	0.0	preferred_right	3600.0	0.0		16.502718100033235	0.0333400999661535
0	8.82057589996839	stim	259		2	ambiguous_practice	ambiguous_practice	0.0	preferred_right	3600.0	0.0		16.53605819999939	0.03316280001308769
0	8.853738699981477	stim	260		2	ambiguous_practice	ambiguous_practice	0.0	preferred_right	3600.0	0.0		16.569221000012476	0.03332240000599995
0	8.887061099987477	stim	261		2	ambiguous_practice	ambiguous_practice	0.0	preferred_right	3600.0	0.0		16.602543400018476	0.0332860000198707
0	8.920347100007348	stim	262		2	ambiguous_practice	ambiguous_practice	0.0	preferred_right	3600.0	0.0		16.635829400038347	0.03328089998103678
0	8.953627999988385	stim	263		2	ambiguous_practice	ambiguous_practice	0.0	preferred_right	3600.0	0.0		16.669110300019383	0.033840799995232373
0	8.987468799983617	stim	264		2	ambiguous_practice	ambiguous_practice	0.0	preferred_right	3600.0	0.0		16.702951100014616	0.03330599999753758
0	9.020774799981155	stim	265		2	ambiguous_practice	ambiguous_practice	0.0	preferred_right	3600.0	0.0		16.736257100012153	0.033470400026999414
0	9.054245200008154	stim	266		2	ambiguous_practice	ambiguous_practice	0.0	preferred_right	3600.0	0.0		16.769727500039153	0.03356879996135831
0	9.087813999969512	stim	267		2	ambiguous_practice	ambiguous_practice	0.0	preferred_right	3600.0	0.0		16.80329630000051	0.03333130001556128
0	9.121145299985074	stim	268		2	ambiguous_practice	ambiguous_practice	0.0	preferred_right	3600.0	0.0		16.836627600016072	0.03312859998550266
0	9.154273899970576	stim	269		2	ambiguous_practice	ambiguous_practice	0.0	preferred_right	3600.0	0.0		16.869756200001575	0.034047799999825656
0	9.188321699970402	stim	270		2	ambiguous_practice	ambiguous_practice	0.0	preferred_right	3600.0	0.0		16.9038040000014	0.03269760002149269
0	9.221019299991895	stim	271		2	ambiguous_practice	ambiguous_practice	0.0	preferred_right	3600.0	0.0		16.936501600022893	0.03358749998733401
0	9.254606799979229	stim	272		2	ambiguous_practice	ambiguous_practice	0.0	preferred_right	3600.0	0.0		16.970089100010227	0.034068700042553246
0	9.288675500021782	stim	273		2	ambiguous_practice	ambiguous_practice	0.0	preferred_right	3600.0	0.0		17.00415780005278	0.0333597999997437
0	9.322035300021525	stim	274		2	ambiguous_practice	ambiguous_practice	0.0	preferred_right	3600.0	0.0		17.037517600052524	0.03333109995583072
0	9.355366399977356	stim	275		2	ambiguous_practice	ambiguous_practice	0.0	preferred_right	3600.0	0.0		17.070848700008355	0.03327880002325401
0	9.38864520000061	stim	276		2	ambiguous_practice	ambiguous_practice	0.0	preferred_right	3600.0	0.0		17.10412750003161	0.03322679997654632
0	9.421871999977157	stim	277		2	ambiguous_practice	ambiguous_practice	0.0	preferred_right	3600.0	0.0		17.137354300008155	0.033096900035161525
0	9.454968900012318	stim	278		2	ambiguous_practice	ambiguous_practice	0.0	preferred_right	3600.0	0.0		17.170451200043317	0.033310299972072244
0	9.48827919998439	stim	279		2	ambiguous_practice	ambiguous_practice	0.0	preferred_right	3600.0	0.0		17.20376150001539	0.0341105000115931
0	9.522389699995983	stim	280		2	ambiguous_practice	ambiguous_practice	0.0	preferred_right	3600.0	0.0		17.237872000026982	0.03328710002824664
0	9.55567680002423	stim	281		2	ambiguous_practice	ambiguous_practice	0.0	preferred_right	3600.0	0.0		17.27115910005523	0.03331509995041415
0	9.588991899974644	stim	282		2	ambiguous_practice	ambiguous_practice	0.0	preferred_right	3600.0	0.0		17.304474200005643	0.03337210003519431
0	9.622364000009838	stim	283		2	ambiguous_practice	ambiguous_practice	0.0	preferred_right	3600.0	0.0		17.337846300040837	0.03374089999124408
0	9.656104900001083	stim	284		2	ambiguous_practice	ambiguous_practice	0.0	preferred_right	3600.0	0.0		17.37158720003208	0.05017309996765107
0	9.706277999968734	stim	285		0	ambiguous_practice	ambiguous_practice	0.0	preferred_right	3600.0	0.0		17.421760299999733	4.718348300026264
0	14.424626299994998	ambiguous_practice	285	n	2	ambiguous_practice	ambiguous_practice	0.0	preferred_right	3600.0	0.0	1.79310919996351	22.140108600025997	-4.651850899972487
0	9.77277540002251	stim	286		2	ambiguous_practice	ambiguous_practice	0.0	preferred_right	3600.0	0.0		17.48825770005351	0.03355359996203333
0	9.806328999984544	stim	287		2	ambiguous_practice	ambiguous_practice	0.0	preferred_right	3600.0	0.0		17.521811300015543	0.0332918000058271
0	9.83962079999037	stim	288		2	ambiguous_practice	ambiguous_practice	0.0	preferred_right	3600.0	0.0		17.55510310002137	0.03334790002554655
0	9.872968700015917	stim	289		2	ambiguous_practice	ambiguous_practice	0.0	preferred_right	3600.0	0.0		17.588451000046916	0.03325019998010248
0	9.90621889999602	stim	290		2	ambiguous_practice	ambiguous_practice	0.0	preferred_right	3600.0	0.0		17.62170120002702	0.0336576999980025
0	9.939876599994022	stim	291		2	ambiguous_practice	ambiguous_practice	0.0	preferred_right	3600.0	0.0		17.65535890002502	0.03317780001088977
0	9.973054400004912	stim	292		2	ambiguous_practice	ambiguous_practice	0.0	preferred_right	3600.0	0.0		17.68853670003591	0.033840499992948025
0	10.00689489999786	stim	293		2	ambiguous_practice	ambiguous_practice	0.0	preferred_right	3600.0	0.0		17.72237720002886	0.03340959997149184
0	10.040304499969352	stim	294		2	ambiguous_practice	ambiguous_practice	0.0	preferred_right	3600.0	0.0		17.75578680000035	0.033526800049003214
0	10.073831300018355	stim	295		2	ambiguous_practice	ambiguous_practice	0.0	preferred_right	3600.0	0.0		17.789313600049354	0.03340149996802211
0	10.107232799986377	stim	296		2	ambiguous_practice	ambiguous_practice	0.0	preferred_right	3600.0	0.0		17.822715100017376	0.03330690000439063
0	10.140539699990768	stim	297		2	ambiguous_practice	ambiguous_practice	0.0	preferred_right	3600.0	0.0		17.856022000021767	0.03336709999712184
0	10.17390679998789	stim	298		2	ambiguous_practice	ambiguous_practice	0.0	preferred_right	3600.0	0.0		17.88938910001889	0.033132300013676286
0	10.207039100001566	stim	299		2	ambiguous_practice	ambiguous_practice	0.0	preferred_right	3600.0	0.0		17.922521400032565	0.03319980000378564
0	10.240238900005352	stim	300		2	ambiguous_practice	ambiguous_practice	0.0	preferred_right	3600.0	0.0		17.95572120003635	0.033729599963407964
0	10.27396849996876	stim	301		2	ambiguous_practice	ambiguous_practice	0.0	preferred_right	3600.0	0.0		17.98945079999976	0.0334842000156641
0	10.307452699984424	stim	302		2	ambiguous_practice	ambiguous_practice	0.0	preferred_right	3600.0	0.0		18.022935000015423	0.03334910003468394
0	10.340801800019108	stim	303		2	ambiguous_practice	ambiguous_practice	0.0	preferred_right	3600.0	0.0		18.056284100050107	0.03317329997662455
0	10.373975099995732	stim	304		2	ambiguous_practice	ambiguous_practice	0.0	preferred_right	3600.0	0.0		18.08945740002673	0.03331229998730123
0	10.407287399983034	stim	305		2	ambiguous_practice	ambiguous_practice	0.0	preferred_right	3600.0	0.0		18.122769700014032	0.033516300027258694
0	10.440803700010292	stim	306		2	ambiguous_practice	ambiguous_practice	0.0	preferred_right	3600.0	0.0		18.15628600004129	0.03271050000330433
0	10.473514200013597	stim	307		2	ambiguous_practice	ambiguous_practice	0.0	preferred_right	3600.0	0.0		18.188996500044595	0.033686399983707815
0	10.507200599997304	stim	308		2	ambiguous_practice	ambiguous_practice	0.0	preferred_right	3600.0	0.0		18.222682900028303	0.03380079998169094
0	10.541001399978995	stim	309		2	ambiguous_practice	ambiguous_practice	0.0	preferred_right	3600.0	0.0		18.256483700009994	0.03347419999772683
0	10.574475599976722	stim	310		2	ambiguous_practice	ambiguous_practice	0.0	preferred_right	3600.0	0.0		18.28995790000772	0.033228799991775304
0	10.607704399968497	stim	311		2	ambiguous_practice	ambiguous_practice	0.0	preferred_right	3600.0	0.0		18.323186699999496	0.033433300035540015
0	10.641137700004037	stim	312		2	ambiguous_practice	ambiguous_practice	0.0	preferred_right	3600.0	0.0		18.356620000035036	0.03331349999643862
0	10.674451200000476	stim	313		2	ambiguous_practice	ambiguous_practice	0.0	preferred_right	3600.0	0.0		18.389933500031475	0.03349860000889748
0	10.707949800009374	stim	314		2	ambiguous_practice	ambiguous_practice	0.0	preferred_right	3600.0	0.0		18.423432100040372	0.03394599998136982
0	10.741895799990743	stim	315		2	ambiguous_practice	ambiguous_practice	0.0	preferred_right	3600.0	0.0		18.457378100021742	0.03324459999566898
0	10.775140399986412	stim	316		2	ambiguous_practice	ambiguous_practice	0.0	preferred_right	3600.0	0.0		18.49062270001741	0.03326380002545193
0	10.808404200011864	stim	317		2	ambiguous_practice	ambiguous_practice	0.0	preferred_right	3600.0	0.0		18.523886500042863	0.03351999999722466
0	10.841924200009089	stim	318		2	ambiguous_practice	ambiguous_practice	0.0	preferred_right	3600.0	0.0		18.557406500040088	0.033368000003974885
0	10.875292200013064	stim	319		2	ambiguous_practice	ambiguous_practice	0.0	preferred_right	3600.0	0.0		18.590774500044063	0.03321470000082627
0	10.90850690001389	stim	320		2	ambiguous_practice	ambiguous_practice	0.0	preferred_right	3600.0	0.0		18.62398920004489	0.03339399996912107
0	10.941900899983011	stim	321		2	ambiguous_practice	ambiguous_practice	0.0	preferred_right	3600.0	0.0		18.65738320001401	0.03339830000186339
0	10.975299199984875	stim	322		2	ambiguous_practice	ambiguous_practice	0.0	preferred_right	3600.0	0.0		18.690781500015873	0.033719300001394004
0	11.009018499986269	stim	323		2	ambiguous_practice	ambiguous_practice	0.0	preferred_right	3600.0	0.0		18.724500800017267	0.03326840000227094
0	11.04228689998854	stim	324		2	ambiguous_practice	ambiguous_practice	0.0	preferred_right	3600.0	0.0		18.75776920001954	0.03368910000426695
0	11.075975999992806	stim	325		2	ambiguous_practice	ambiguous_practice	0.0	preferred_right	3600.0	0.0		18.791458300023805	0.033202000020537525
0	11.109178000013344	stim	326		2	ambiguous_practice	ambiguous_practice	0.0	preferred_right	3600.0	0.0		18.824660300044343	0.03368759999284521
0	11.14286560000619	stim	327		2	ambiguous_practice	ambiguous_practice	0.0	preferred_right	3600.0	0.0		18.858347900037188	0.03315380000276491
0	11.176019400008954	stim	328		2	ambiguous_practice	ambiguous_practice	0.0	preferred_right	3600.0	0.0		18.891501700039953	0.03296829998726025
0	11.208987699996214	stim	329		2	ambiguous_practice	ambiguous_practice	0.0	preferred_right	3600.0	0.0		18.924470000027213	0.03369449998717755
0	11.242682199983392	stim	330		2	ambiguous_practice	ambiguous_practice	0.0	preferred_right	3600.0	0.0		18.95816450001439	0.03388870001072064
0	11.276570899994113	stim	331		2	ambiguous_practice	ambiguous_practice	0.0	preferred_right	3600.0	0.0		18.99205320002511	0.03310010000132024
0	11.309670999995433	stim	332		2	ambiguous_practice	ambiguous_practice	0.0	preferred_right	3600.0	0.0		19.02515330002643	0.033495499985292554
0	11.343166499980725	stim	333		2	ambiguous_practice	ambiguous_practice	0.0	preferred_right	3600.0	0.0		19.058648800011724	0.03353630000492558
0	11.376702799985651	stim	334		2	ambiguous_practice	ambiguous_practice	0.0	preferred_right	3600.0	0.0		19.09218510001665	0.03332819999195635
0	11.410030999977607	stim	335		2	ambiguous_practice	ambiguous_practice	0.0	preferred_right	3600.0	0.0		19.125513300008606	0.033262900018598884
0	11.443293899996206	stim	336		2	ambiguous_practice	ambiguous_practice	0.0	preferred_right	3600.0	0.0		19.158776200027205	0.032813699974212795
0	11.476107599970419	stim	337		2	ambiguous_practice	ambiguous_practice	0.0	preferred_right	3600.0	0.0		19.191589900001418	0.03410520002944395
0	11.510212799999863	stim	338		2	ambiguous_practice	ambiguous_practice	0.0	preferred_right	3600.0	0.0		19.225695100030862	0.0335462000221014
0	11.543759000021964	stim	339		2	ambiguous_practice	ambiguous_practice	0.0	preferred_right	3600.0	0.0		19.259241300052963	0.032998799986671656
0	11.576757800008636	stim	340		2	ambiguous_practice	ambiguous_practice	0.0	preferred_right	3600.0	0.0		19.292240100039635	0.033652500016614795
0	11.61041030002525	stim	341		2	ambiguous_practice	ambiguous_practice	0.0	preferred_right	3600.0	0.0		19.32589260005625	0.03327039995929226
0	11.643680699984543	stim	342		2	ambiguous_practice	ambiguous_practice	0.0	preferred_right	3600.0	0.0		19.359163000015542	0.033412199991289526
0	11.677092899975833	stim	343		2	ambiguous_practice	ambiguous_practice	0.0	preferred_right	3600.0	0.0		19.39257520000683	0.03337800002191216
0	11.710470899997745	stim	344		2	ambiguous_practice	ambiguous_practice	0.0	preferred_right	3600.0	0.0		19.425953200028744	0.033565099991392344
0	11.744035999989137	stim	345		2	ambiguous_practice	ambiguous_practice	0.0	preferred_right	3600.0	0.0		19.459518300020136	0.033440600032918155
0	11.777476600022055	stim	346		2	ambiguous_practice	ambiguous_practice	0.0	preferred_right	3600.0	0.0		19.492958900053054	0.03317459998652339
0	11.810651200008579	stim	347		2	ambiguous_practice	ambiguous_practice	0.0	preferred_right	3600.0	0.0		19.526133500039577	0.03343730000779033
0	11.844088500016369	stim	348		2	ambiguous_practice	ambiguous_practice	0.0	preferred_right	3600.0	0.0		19.559570800047368	0.03332389995921403
0	11.877412399975583	stim	349		2	ambiguous_practice	ambiguous_practice	0.0	preferred_right	3600.0	0.0		19.592894700006582	0.033242300036363304
0	11.910654700011946	stim	350		2	ambiguous_practice	ambiguous_practice	0.0	preferred_right	3600.0	0.0		19.626137000042945	0.03370029997313395
0	11.94435499998508	stim	351		2	ambiguous_practice	ambiguous_practice	0.0	preferred_right	3600.0	0.0		19.65983730001608	0.03336569998646155
0	11.977720699971542	stim	352		2	ambiguous_practice	ambiguous_practice	0.0	preferred_right	3600.0	0.0		19.69320300000254	0.03377330000512302
0	12.011493999976665	stim	353		2	ambiguous_practice	ambiguous_practice	0.0	preferred_right	3600.0	0.0		19.726976300007664	0.03338800003984943
0	12.044882000016514	stim	354		2	ambiguous_practice	ambiguous_practice	0.0	preferred_right	3600.0	0.0		19.760364300047513	0.033618299989029765
0	12.078500300005544	stim	355		2	ambiguous_practice	ambiguous_practice	0.0	preferred_right	3600.0	0.0		19.793982600036543	0.033231800014618784
0	12.111732100020163	stim	356		2	ambiguous_practice	ambiguous_practice	0.0	preferred_right	3600.0	0.0		19.82721440005116	0.03335250000236556
0	12.145084600022528	stim	357		2	ambiguous_practice	ambiguous_practice	0.0	preferred_right	3600.0	0.0		19.860566900053527	0.03338229999644682
0	12.178466900018975	stim	358		2	ambiguous_practice	ambiguous_practice	0.0	preferred_right	3600.0	0.0		19.893949200049974	0.03275379998376593
0	12.211220700002741	stim	359		2	ambiguous_practice	ambiguous_practice	0.0	preferred_right	3600.0	0.0		19.92670300003374	0.03362030000425875
0	12.244841000007	stim	360		2	ambiguous_practice	ambiguous_practice	0.0	preferred_right	3600.0	0.0		19.960323300038	0.03401999996276572
0	12.278860999969766	stim	361		2	ambiguous_practice	ambiguous_practice	0.0	preferred_right	3600.0	0.0		19.994343300000764	0.03358820005087182
0	12.312449200020637	stim	362		2	ambiguous_practice	ambiguous_practice	0.0	preferred_right	3600.0	0.0		20.027931500051636	0.03327109996462241
0	12.34572029998526	stim	363		2	ambiguous_practice	ambiguous_practice	0.0	preferred_right	3600.0	0.0		20.06120260001626	0.0334166000247933
0	12.379136900010053	stim	364		2	ambiguous_practice	ambiguous_practice	0.0	preferred_right	3600.0	0.0		20.094619200041052	0.03327549999812618
0	12.41241240000818	stim	365		2	ambiguous_practice	ambiguous_practice	0.0	preferred_right	3600.0	0.0		20.127894700039178	0.033332199964206666
0	12.445744599972386	stim	366		2	ambiguous_practice	ambiguous_practice	0.0	preferred_right	3600.0	0.0		20.161226900003385	0.033110400021541864
0	12.478854999993928	stim	367		2	ambiguous_practice	ambiguous_practice	0.0	preferred_right	3600.0	0.0		20.194337300024927	0.033913200022652745
0	12.51276820001658	stim	368		2	ambiguous_practice	ambiguous_practice	0.0	preferred_right	3600.0	0.0		20.22825050004758	0.03342769999289885
0	12.54619590000948	stim	369		2	ambiguous_practice	ambiguous_practice	0.0	preferred_right	3600.0	0.0		20.26167820004048	0.03368090000003576
0	12.579876800009515	stim	370		2	ambiguous_practice	ambiguous_practice	0.0	preferred_right	3600.0	0.0		20.295359100040514	0.03343859995948151
0	12.613315399968997	stim	371		2	ambiguous_practice	ambiguous_practice	0.0	preferred_right	3600.0	0.0		20.328797699999996	0.033224400016479194
0	12.646539799985476	stim	372		2	ambiguous_practice	ambiguous_practice	0.0	preferred_right	3600.0	0.0		20.362022100016475	0.03349440003512427
0	12.6800342000206	stim	373		2	ambiguous_practice	ambiguous_practice	0.0	preferred_right	3600.0	0.0		20.3955165000516	0.03338249999796972
0	12.71341670001857	stim	374		2	ambiguous_practice	ambiguous_practice	0.0	preferred_right	3600.0	0.0		20.42889900004957	0.033275900001171976
0	12.746692600019742	stim	375		2	ambiguous_practice	ambiguous_practice	0.0	preferred_right	3600.0	0.0		20.46217490005074	0.033528100000694394
0	12.780220700020436	stim	376		2	ambiguous_practice	ambiguous_practice	0.0	preferred_right	3600.0	0.0		20.495703000051435	0.03337489999830723
0	12.813595600018743	stim	377		2	ambiguous_practice	ambiguous_practice	0.0	preferred_right	3600.0	0.0		20.529077900049742	0.033523299964144826
0	12.847118899982888	stim	378		2	ambiguous_practice	ambiguous_practice	0.0	preferred_right	3600.0	0.0		20.562601200013887	0.03358920000027865
0	12.880708099983167	stim	379		2	ambiguous_practice	ambiguous_practice	0.0	preferred_right	3600.0	0.0		20.596190400014166	0.03330499998992309
0	12.91401309997309	stim	380		2	ambiguous_practice	ambiguous_practice	0.0	preferred_right	3600.0	0.0		20.62949540000409	0.03289630002109334
0	12.946909399994183	stim	381		2	ambiguous_practice	ambiguous_practice	0.0	preferred_right	3600.0	0.0		20.662391700025182	0.03363060002448037
0	12.980540000018664	stim	382		2	ambiguous_practice	ambiguous_practice	0.0	preferred_right	3600.0	0.0		20.696022300049663	0.03357199998572469
0	13.014112000004388	stim	383		2	ambiguous_practice	ambiguous_practice	0.0	preferred_right	3600.0	0.0		20.729594300035387	0.033404899993911386
0	13.0475168999983	stim	384		2	ambiguous_practice	ambiguous_practice	0.0	preferred_right	3600.0	0.0		20.7629992000293	0.03330840001581237
0	13.080825300014112	stim	385		2	ambiguous_practice	ambiguous_practice	0.0	preferred_right	3600.0	0.0		20.79630760004511	0.03370929998345673
0	13.114534599997569	stim	386		2	ambiguous_practice	ambiguous_practice	0.0	preferred_right	3600.0	0.0		20.830016900028568	0.03332430002046749
0	13.147858900018036	stim	387		2	ambiguous_practice	ambiguous_practice	0.0	preferred_right	3600.0	0.0		20.863341200049035	0.03356449998682365
0	13.18142340000486	stim	388		2	ambiguous_practice	ambiguous_practice	0.0	preferred_right	3600.0	0.0		20.89690570003586	0.03378369996789843
0	13.215207099972758	stim	389		2	ambiguous_practice	ambiguous_practice	0.0	preferred_right	3600.0	0.0		20.930689400003757	0.033340000023599714
0	13.248547099996358	stim	390		2	ambiguous_practice	ambiguous_practice	0.0	preferred_right	3600.0	0.0		20.964029400027357	0.03339810000034049
0	13.281945199996699	stim	391		2	ambiguous_practice	ambiguous_practice	0.0	preferred_right	3600.0	0.0		20.997427500027698	0.033467400004155934
0	13.315412600000855	stim	392		2	ambiguous_practice	ambiguous_practice	0.0	preferred_right	3600.0	0.0		21.030894900031853	0.033293700020294636
0	13.34870630002115	stim	393		2	ambiguous_practice	ambiguous_practice	0.0	preferred_right	3600.0	0.0		21.064188600052148	0.03337619994999841
0	13.382082499971148	stim	394		2	ambiguous_practice	ambiguous_practice	0.0	preferred_right	3600.0	0.0		21.097564800002147	0.03329660004237667
0	13.415379100013524	stim	395		2	ambiguous_practice	ambiguous_practice	0.0	preferred_right	3600.0	0.0		21.130861400044523	0.03334359999280423
0	13.448722700006329	stim	396		2	ambiguous_practice	ambiguous_practice	0.0	preferred_right	3600.0	0.0		21.164205000037327	0.03366020001703873
0	13.482382900023367	stim	397		2	ambiguous_practice	ambiguous_practice	0.0	preferred_right	3600.0	0.0		21.197865200054366	0.033325099968351424
0	13.515707999991719	stim	398		2	ambiguous_practice	ambiguous_practice	0.0	preferred_right	3600.0	0.0		21.231190300022718	0.03348099999129772
0	13.549188999983016	stim	399		2	ambiguous_practice	ambiguous_practice	0.0	preferred_right	3600.0	0.0		21.264671300014015	0.0333169000223279
0	13.582505900005344	stim	400		2	ambiguous_practice	ambiguous_practice	0.0	preferred_right	3600.0	0.0		21.297988200036343	0.03338370000710711
0	13.615889600012451	stim	401		2	ambiguous_practice	ambiguous_practice	0.0	preferred_right	3600.0	0.0		21.33137190004345	0.033774100011214614
0	13.649663700023666	stim	402		2	ambiguous_practice	ambiguous_practice	0.0	preferred_right	3600.0	0.0		21.365146000054665	0.03324609994888306
0	13.682909799972549	stim	403		2	ambiguous_practice	ambiguous_practice	0.0	preferred_right	3600.0	0.0		21.398392100003548	0.033329300000332296
0	13.716239099972881	stim	404		2	ambiguous_practice	ambiguous_practice	0.0	preferred_right	3600.0	0.0		21.43172140000388	0.033553300017956644
0	13.749792399990838	stim	405		2	ambiguous_practice	ambiguous_practice	0.0	preferred_right	3600.0	0.0		21.465274700021837	0.033471499977167696
0	13.783263899968006	stim	406		2	ambiguous_practice	ambiguous_practice	0.0	preferred_right	3600.0	0.0		21.498746199999005	0.03330200002528727
0	13.816565899993293	stim	407		2	ambiguous_practice	ambiguous_practice	0.0	preferred_right	3600.0	0.0		21.532048200024292	0.03353999997489154
0	13.850105899968185	stim	408		2	ambiguous_practice	ambiguous_practice	0.0	preferred_right	3600.0	0.0		21.565588199999183	0.03325740003492683
0	13.883363300003111	stim	409		2	ambiguous_practice	ambiguous_practice	0.0	preferred_right	3600.0	0.0		21.59884560003411	0.03360690001863986
0	13.916970200021751	stim	410		2	ambiguous_practice	ambiguous_practice	0.0	preferred_right	3600.0	0.0		21.63245250005275	0.03373299998929724
0	13.950703200011048	stim	411		2	ambiguous_practice	ambiguous_practice	0.0	preferred_right	3600.0	0.0		21.666185500042047	0.035809499968308955
0	13.986512699979357	stim	412		2	ambiguous_practice	ambiguous_practice	0.0	preferred_right	3600.0	0.0		21.701995000010356	0.03343489998951554
0	14.019947599968873	stim	413		2	ambiguous_practice	ambiguous_practice	0.0	preferred_right	3600.0	0.0		21.735429899999872	0.033371000026818365
0	14.053318599995691	stim	414		2	ambiguous_practice	ambiguous_practice	0.0	preferred_right	3600.0	0.0		21.76880090002669	0.03338189999340102
0	14.086700499989092	stim	415		2	ambiguous_practice	ambiguous_practice	0.0	preferred_right	3600.0	0.0		21.80218280002009	0.03335530002368614
0	14.120055800012778	stim	416		2	ambiguous_practice	ambiguous_practice	0.0	preferred_right	3600.0	0.0		21.835538100043777	0.03374350001104176
0	14.15379930002382	stim	417		2	ambiguous_practice	ambiguous_practice	0.0	preferred_right	3600.0	0.0		21.86928160005482	0.032237399951554835
0	14.186036699975375	stim	418		2	ambiguous_practice	ambiguous_practice	0.0	preferred_right	3600.0	0.0		21.901519000006374	0.034153300046455115
0	14.22019000002183	stim	419		2	ambiguous_practice	ambiguous_practice	0.0	preferred_right	3600.0	0.0		21.93567230005283	0.03337619994999841
0	14.253566199971829	stim	420		2	ambiguous_practice	ambiguous_practice	0.0	preferred_right	3600.0	0.0		21.969048500002827	0.03311260003829375
0	14.286678800010122	stim	421		2	ambiguous_practice	ambiguous_practice	0.0	preferred_right	3600.0	0.0		22.00216110004112	0.033434599987231195
0	14.320113399997354	stim	422		2	ambiguous_practice	ambiguous_practice	0.0	preferred_right	3600.0	0.0		22.035595700028352	0.03338189999340102
0	14.353495299990755	stim	423		2	ambiguous_practice	ambiguous_practice	0.0	preferred_right	3600.0	0.0		22.068977600021753	0.033061399997677654
0	14.386556699988432	stim	424		2	ambiguous_practice	ambiguous_practice	0.0	preferred_right	3600.0	0.0		22.10203900001943	0.03273640002589673
0	14.419293100014329	stim	425		2	ambiguous_practice	ambiguous_practice	0.0	preferred_right	3600.0	0.0		22.134775400045328	0.03364589996635914
0	14.452938999980688	stim	426		2	ambiguous_practice	ambiguous_practice	0.0	preferred_right	3600.0	0.0		22.168421300011687	0.03380269999615848
0	14.486741699976847	stim	427		2	ambiguous_practice	ambiguous_practice	0.0	preferred_right	3600.0	0.0		22.202224000007845	0.03356559999519959
0	14.520307299972046	stim	428		2	ambiguous_practice	ambiguous_practice	0.0	preferred_right	3600.0	0.0		22.235789600003045	0.03286900004604831
0	14.553176300018094	stim	429		2	ambiguous_practice	ambiguous_practice	0.0	preferred_right	3600.0	0.0		22.268658600049093	0.03328909998526797
0	14.586465400003362	stim	430		2	ambiguous_practice	ambiguous_practice	0.0	preferred_right	3600.0	0.0		22.30194770003436	0.03345479996642098
0	14.619920199969783	stim	431		2	ambiguous_practice	ambiguous_practice	0.0	preferred_right	3600.0	0.0		22.335402500000782	0.03343140002107248
0	14.653351599990856	stim	432		2	ambiguous_practice	ambiguous_practice	0.0	preferred_right	3600.0	0.0		22.368833900021855	0.03346679999958724
0	14.686818399990443	stim	433		2	ambiguous_practice	ambiguous_practice	0.0	preferred_right	3600.0	0.0		22.402300700021442	0.03351059998385608
0	14.7203289999743	stim	434		2	ambiguous_practice	ambiguous_practice	0.0	preferred_right	3600.0	0.0		22.435811300005298	0.032964900019578636
0	14.753293899993878	stim	435		2	ambiguous_practice	ambiguous_practice	0.0	preferred_right	3600.0	0.0		22.468776200024877	0.03333890001522377
0	14.786632800009102	stim	436		2	ambiguous_practice	ambiguous_practice	0.0	preferred_right	3600.0	0.0		22.5021151000401	0.0331729999743402
0	14.819805799983442	stim	437		2	ambiguous_practice	ambiguous_practice	0.0	preferred_right	3600.0	0.0		22.53528810001444	0.033738600031938404
0	14.85354440001538	stim	438		2	ambiguous_practice	ambiguous_practice	0.0	preferred_right	3600.0	0.0		22.56902670004638	0.03321709996089339
0	14.886761499976274	stim	439		2	ambiguous_practice	ambiguous_practice	0.0	preferred_right	3600.0	0.0		22.602243800007273	0.033354800019878894
0	14.920116299996153	stim	440		2	ambiguous_practice	ambiguous_practice	0.0	preferred_right	3600.0	0.0		22.63559860002715	0.03315129998372868
0	14.953267599979881	stim	441		2	ambiguous_practice	ambiguous_practice	0.0	preferred_right	3600.0	0.0		22.66874990001088	0.03386470000259578
0	14.987132299982477	stim	442		2	ambiguous_practice	ambiguous_practice	0.0	preferred_right	3600.0	0.0		22.702614600013476	0.03340090002166107
0	15.020533200004138	stim	443		2	ambiguous_practice	ambiguous_practice	0.0	preferred_right	3600.0	0.0		22.736015500035137	0.033461300015915185
0	15.053994500020053	stim	444		2	ambiguous_practice	ambiguous_practice	0.0	preferred_right	3600.0	0.0		22.769476800051052	0.03327939996961504
0	15.087273899989668	stim	445		2	ambiguous_practice	ambiguous_practice	0.0	preferred_right	3600.0	0.0		22.802756200020667	0.033323300012853
0	15.120597200002521	stim	446		2	ambiguous_practice	ambiguous_practice	0.0	preferred_right	3600.0	0.0		22.83607950003352	0.03347949997987598
0	15.154076699982397	stim	447		2	ambiguous_practice	ambiguous_practice	0.0	preferred_right	3600.0	0.0		22.869559000013396	0.03292389999842271
0	15.18700059998082	stim	448		2	ambiguous_practice	ambiguous_practice	0.0	preferred_right	3600.0	0.0		22.90248290001182	0.03310020000208169
0	15.220100799982902	stim	449		2	ambiguous_practice	ambiguous_practice	0.0	preferred_right	3600.0	0.0		22.9355831000139	0.033938400039914995
0	15.254039200022817	stim	450		2	ambiguous_practice	ambiguous_practice	0.0	preferred_right	3600.0	0.0		22.969521500053816	0.03332449996378273
0	15.2873636999866	stim	451		2	ambiguous_practice	ambiguous_practice	0.0	preferred_right	3600.0	0.0		23.0028460000176	0.033181500039063394
0	15.320545200025663	stim	452		2	ambiguous_practice	ambiguous_practice	0.0	preferred_right	3600.0	0.0		23.03602750005666	0.033510199980810285
0	15.354055400006473	stim	453		2	ambiguous_practice	ambiguous_practice	0.0	preferred_right	3600.0	0.0		23.069537700037472	0.033092300000134856
0	15.387147700006608	stim	454		2	ambiguous_practice	ambiguous_practice	0.0	preferred_right	3600.0	0.0		23.102630000037607	0.033963499998208135
0	15.421111200004816	stim	455		2	ambiguous_practice	ambiguous_practice	0.0	preferred_right	3600.0	0.0		23.136593500035815	0.03271629998926073
0	15.453827499994077	stim	456		2	ambiguous_practice	ambiguous_practice	0.0	preferred_right	3600.0	0.0		23.169309800025076	0.03396259999135509
0	15.487790099985432	stim	457		2	ambiguous_practice	ambiguous_practice	0.0	preferred_right	3600.0	0.0		23.20327240001643	0.03363590000662953
0	15.521425999992061	stim	458		2	ambiguous_practice	ambiguous_practice	0.0	preferred_right	3600.0	0.0		23.23690830002306	0.0332295999978669
0	15.554655599989928	stim	459		2	ambiguous_practice	ambiguous_practice	0.0	preferred_right	3600.0	0.0		23.270137900020927	0.033114599995315075
0	15.587770199985243	stim	460		2	ambiguous_practice	ambiguous_practice	0.0	preferred_right	3600.0	0.0		23.303252500016242	0.033572199987247586
0	15.621342399972491	stim	461		2	ambiguous_practice	ambiguous_practice	0.0	preferred_right	3600.0	0.0		23.33682470000349	0.0335039000492543
0	15.654846300021745	stim	462		2	ambiguous_practice	ambiguous_practice	0.0	preferred_right	3600.0	0.0		23.370328600052744	0.033579799986910075
0	15.688426100008655	stim	463		2	ambiguous_practice	ambiguous_practice	0.0	preferred_right	3600.0	0.0		23.403908400039654	0.03288429998792708
0	15.721310399996582	stim	464		2	ambiguous_practice	ambiguous_practice	0.0	preferred_right	3600.0	0.0		23.43679270002758	0.033997600025031716
0	15.755308000021614	stim	465		2	ambiguous_practice	ambiguous_practice	0.0	preferred_right	3600.0	0.0		23.470790300052613	0.03325330000370741
0	15.788561300025322	stim	466		2	ambiguous_practice	ambiguous_practice	0.0	preferred_right	3600.0	0.0		23.50404360005632	0.033541299984790385
0	15.822102600010112	stim	467		2	ambiguous_practice	ambiguous_practice	0.0	preferred_right	3600.0	0.0		23.53758490004111	0.0333290999988094
0	15.855431700008921	stim	468		2	ambiguous_practice	ambiguous_practice	0.0	preferred_right	3600.0	0.0		23.57091400003992	0.03334919997723773
0	15.888780899986159	stim	469		2	ambiguous_practice	ambiguous_practice	0.0	preferred_right	3600.0	0.0		23.604263200017158	0.0333651999826543
0	15.922146099968813	stim	470		2	ambiguous_practice	ambiguous_practice	0.0	preferred_right	3600.0	0.0		23.637628399999812	0.03313910000724718
0	15.95528519997606	stim	471		2	ambiguous_practice	ambiguous_practice	0.0	preferred_right	3600.0	0.0		23.67076750000706	0.03316019999329001
0	15.98844539996935	stim	472		2	ambiguous_practice	ambiguous_practice	0.0	preferred_right	3600.0	0.0		23.70392770000035	0.03397920000134036
0	16.02242459997069	stim	473		2	ambiguous_practice	ambiguous_practice	0.0	preferred_right	3600.0	0.0		23.73790690000169	0.03330960002494976
0	16.05573419999564	stim	474		2	ambiguous_practice	ambiguous_practice	0.0	preferred_right	3600.0	0.0		23.77121650002664	0.03368450002744794
0	16.08941870002309	stim	475		2	ambiguous_practice	ambiguous_practice	0.0	preferred_right	3600.0	0.0		23.804901000054087	0.03333459998248145
0	16.12275330000557	stim	476		2	ambiguous_practice	ambiguous_practice	0.0	preferred_right	3600.0	0.0		23.83823560003657	0.0330614999984391
0	16.15581480000401	stim	477		2	ambiguous_practice	ambiguous_practice	0.0	preferred_right	3600.0	0.0		23.871297100035008	0.03365479997592047
0	16.18946959997993	stim	478		2	ambiguous_practice	ambiguous_practice	0.0	preferred_right	3600.0	0.0		23.90495190001093	0.0331296999938786
0	16.22259929997381	stim	479		2	ambiguous_practice	ambiguous_practice	0.0	preferred_right	3600.0	0.0		23.938081600004807	0.03382700000656769
0	16.256426299980376	stim	480		2	ambiguous_practice	ambiguous_practice	0.0	preferred_right	3600.0	0.0		23.971908600011375	0.033369600016158074
0	16.289795899996534	stim	481		2	ambiguous_practice	ambiguous_practice	0.0	preferred_right	3600.0	0.0		24.005278200027533	0.03346329997293651
0	16.32325919996947	stim	482		2	ambiguous_practice	ambiguous_practice	0.0	preferred_right	3600.0	0.0		24.03874150000047	0.03304680000292137
0	16.356305999972392	stim	483		2	ambiguous_practice	ambiguous_practice	0.0	preferred_right	3600.0	0.0		24.07178830000339	0.03344560001278296
0	16.389751599985175	stim	484		2	ambiguous_practice	ambiguous_practice	0.0	preferred_right	3600.0	0.0		24.105233900016174	0.03331840003374964
0	16.423070000018924	stim	485		2	ambiguous_practice	ambiguous_practice	0.0	preferred_right	3600.0	0.0		24.138552300049923	0.03287719999207184
0	16.455947200010996	stim	486		2	ambiguous_practice	ambiguous_practice	0.0	preferred_right	3600.0	0.0		24.171429500041995	0.033344399998895824
0	16.489291600009892	stim	487		2	ambiguous_practice	ambiguous_practice	0.0	preferred_right	3600.0	0.0		24.20477390004089	0.03392700001131743
0	16.52321860002121	stim	488		2	ambiguous_practice	ambiguous_practice	0.0	preferred_right	3600.0	0.0		24.23870090005221	0.03336149995448068
0	16.55658009997569	stim	489		2	ambiguous_practice	ambiguous_practice	0.0	preferred_right	3600.0	0.0		24.27206240000669	0.033338300010655075
0	16.589918399986345	stim	490		2	ambiguous_practice	ambiguous_practice	0.0	preferred_right	3600.0	0.0		24.305400700017344	0.033540400036145
0	16.62345880002249	stim	491		2	ambiguous_practice	ambiguous_practice	0.0	preferred_right	3600.0	0.0		24.33894110005349	0.03354889998445287
0	16.657007700006943	stim	492		2	ambiguous_practice	ambiguous_practice	0.0	preferred_right	3600.0	0.0		24.372490000037942	0.03336229996057227
0	16.690369999967515	stim	493		2	ambiguous_practice	ambiguous_practice	0.0	preferred_right	3600.0	0.0		24.405852299998514	0.033008000056724995
0	16.72337800002424	stim	494		2	ambiguous_practice	ambiguous_practice	0.0	preferred_right	3600.0	0.0		24.43886030005524	0.033770899986848235
0	16.75714890001109	stim	495		2	ambiguous_practice	ambiguous_practice	0.0	preferred_right	3600.0	0.0		24.472631200042088	0.03330670000286773
0	16.790455600013956	stim	496		2	ambiguous_practice	ambiguous_practice	0.0	preferred_right	3600.0	0.0		24.505937900044955	0.033339599962346256
0	16.823795199976303	stim	497		2	ambiguous_practice	ambiguous_practice	0.0	preferred_right	3600.0	0.0		24.5392775000073	0.03346200002124533
0	16.857257199997548	stim	498		2	ambiguous_practice	ambiguous_practice	0.0	preferred_right	3600.0	0.0		24.572739500028547	0.033194800023920834
0	16.89045200002147	stim	499		2	ambiguous_practice	ambiguous_practice	0.0	preferred_right	3600.0	0.0		24.605934300052468	0.033126199967227876
0	16.923578199988697	stim	500		2	ambiguous_practice	ambiguous_practice	0.0	preferred_right	3600.0	0.0		24.639060500019696	0.03308030002517626
0	16.956658500013873	stim	501		2	ambiguous_practice	ambiguous_practice	0.0	preferred_right	3600.0	0.0		24.672140800044872	0.03392979997443035
0	16.990588299988303	stim	502		2	ambiguous_practice	ambiguous_practice	0.0	preferred_right	3600.0	0.0		24.706070600019302	0.03333479998400435
0	17.023923099972308	stim	503		2	ambiguous_practice	ambiguous_practice	0.0	preferred_right	3600.0	0.0		24.739405400003307	0.03338620002614334
0	17.05730929999845	stim	504		2	ambiguous_practice	ambiguous_practice	0.0	preferred_right	3600.0	0.0		24.77279160002945	0.03326060000108555
0	17.090569899999537	stim	505		2	ambiguous_practice	ambiguous_practice	0.0	preferred_right	3600.0	0.0		24.806052200030535	0.03315869998186827
0	17.123728599981405	stim	506		2	ambiguous_practice	ambiguous_practice	0.0	preferred_right	3600.0	0.0		24.839210900012404	0.033994900004472584
0	17.157723499985877	stim	507		2	ambiguous_practice	ambiguous_practice	0.0	preferred_right	3600.0	0.0		24.873205800016876	0.03282070002751425
0	17.19054420001339	stim	508		2	ambiguous_practice	ambiguous_practice	0.0	preferred_right	3600.0	0.0		24.90602650004439	0.033861199975945055
0	17.224405399989337	stim	509		2	ambiguous_practice	ambiguous_practice	0.0	preferred_right	3600.0	0.0		24.939887700020336	0.0331809000344947
0	17.25758630002383	stim	510		2	ambiguous_practice	ambiguous_practice	0.0	preferred_right	3600.0	0.0		24.97306860005483	0.03363679995527491
0	17.291223099979106	stim	511		2	ambiguous_practice	ambiguous_practice	0.0	preferred_right	3600.0	0.0		25.006705400010105	0.033422600012272596
0	17.32464569999138	stim	512		2	ambiguous_practice	ambiguous_practice	0.0	preferred_right	3600.0	0.0		25.040128000022378	0.033435999997891486
0	17.35808169998927	stim	513		2	ambiguous_practice	ambiguous_practice	0.0	preferred_right	3600.0	0.0		25.07356400002027	0.033317800029180944
0	17.39139950001845	stim	514		2	ambiguous_practice	ambiguous_practice	0.0	preferred_right	3600.0	0.0		25.10688180004945	0.033381099987309426
0	17.42478060000576	stim	515		2	ambiguous_practice	ambiguous_practice	0.0	preferred_right	3600.0	0.0		25.14026290003676	0.03269289998570457
0	17.457473499991465	stim	516		2	ambiguous_practice	ambiguous_practice	0.0	preferred_right	3600.0	0.0		25.172955800022464	0.03373620001366362
0	17.49120970000513	stim	517		2	ambiguous_practice	ambiguous_practice	0.0	preferred_right	3600.0	0.0		25.206692000036128	0.033416799968108535
0	17.524626499973238	stim	518		2	ambiguous_practice	ambiguous_practice	0.0	preferred_right	3600.0	0.0		25.240108800004236	0.033439300023019314
0	17.558065799996257	stim	519		2	ambiguous_practice	ambiguous_practice	0.0	preferred_right	3600.0	0.0		25.273548100027256	0.033345600008033216
0	17.59141140000429	stim	520		2	ambiguous_practice	ambiguous_practice	0.0	preferred_right	3600.0	0.0		25.30689370003529	0.03330529999220744
0	17.624716699996497	stim	521		2	ambiguous_practice	ambiguous_practice	0.0	preferred_right	3600.0	0.0		25.340199000027496	0.03323350002756342
0	17.65795020002406	stim	522		2	ambiguous_practice	ambiguous_practice	0.0	preferred_right	3600.0	0.0		25.37343250005506	0.03319499996723607
0	17.691145199991297	stim	523		2	ambiguous_practice	ambiguous_practice	0.0	preferred_right	3600.0	0.0		25.406627500022296	0.033005099976435304
0	17.724150299967732	stim	524		2	ambiguous_practice	ambiguous_practice	0.0	preferred_right	3600.0	0.0		25.43963259999873	0.033898600027896464
0	17.75804889999563	stim	525		2	ambiguous_practice	ambiguous_practice	0.0	preferred_right	3600.0	0.0		25.473531200026628	0.03330200002528727
0	17.791350900020916	stim	526		2	ambiguous_practice	ambiguous_practice	0.0	preferred_right	3600.0	0.0		25.506833200051915	0.03340709995245561
0	17.82475799997337	stim	527		2	ambiguous_practice	ambiguous_practice	0.0	preferred_right	3600.0	0.0		25.54024030000437	0.033274700050242245
0	17.858032700023614	stim	528		2	ambiguous_practice	ambiguous_practice	0.0	preferred_right	3600.0	0.0		25.573515000054613	0.03302609996171668
0	17.89105879998533	stim	529		2	ambiguous_practice	ambiguous_practice	0.0	preferred_right	3600.0	0.0		25.60654110001633	0.033770899986848235
0	17.92482969997218	stim	530		2	ambiguous_practice	ambiguous_practice	0.0	preferred_right	3600.0	0.0		25.640312000003178	0.03326310002012178
0	17.9580927999923	stim	531		2	ambiguous_practice	ambiguous_practice	0.0	preferred_right	3600.0	0.0		25.6735751000233	0.03331500000786036
0	17.99140780000016	stim	532		2	ambiguous_practice	ambiguous_practice	0.0	preferred_right	3600.0	0.0		25.70689010003116	0.033416799968108535
0	18.02482459996827	stim	533		2	ambiguous_practice	ambiguous_practice	0.0	preferred_right	3600.0	0.0		25.74030689999927	0.0337817000108771
0	18.058606299979147	stim	534		2	ambiguous_practice	ambiguous_practice	0.0	preferred_right	3600.0	0.0		25.774088600010145	0.03285040002083406
0	18.09145669999998	stim	535		2	ambiguous_practice	ambiguous_practice	0.0	preferred_right	3600.0	0.0		25.80693900003098	0.033319099980872124
0	18.124775799980853	stim	536		2	ambiguous_practice	ambiguous_practice	0.0	preferred_right	3600.0	0.0		25.84025810001185	0.03377580002415925
0	18.158551600005012	stim	537		2	ambiguous_practice	ambiguous_practice	0.0	preferred_right	3600.0	0.0		25.87403390003601	0.033173599978908896
0	18.19172519998392	stim	538		2	ambiguous_practice	ambiguous_practice	0.0	preferred_right	3600.0	0.0		25.90720750001492	0.04975990002276376
0	18.241485100006685	stim	539		2	ambiguous_practice	ambiguous_practice	0.0	preferred_right	3600.0	0.0		25.956967400037684	0.03358230000594631
0	18.27506740001263	stim	540		2	ambiguous_practice	ambiguous_practice	0.0	preferred_right	3600.0	0.0		25.99054970004363	0.033348499971907586
0	18.30841589998454	stim	541		2	ambiguous_practice	ambiguous_practice	0.0	preferred_right	3600.0	0.0		26.023898200015537	0.033760600024834275
0	18.342176500009373	stim	542		2	ambiguous_practice	ambiguous_practice	0.0	preferred_right	3600.0	0.0		26.05765880004037	0.03310930001316592
0	18.37528580002254	stim	543		2	ambiguous_practice	ambiguous_practice	0.0	preferred_right	3600.0	0.0		26.090768100053538	0.03356559999519959
0	18.40885140001774	stim	544		2	ambiguous_practice	ambiguous_practice	0.0	preferred_right	3600.0	0.0		26.124333700048737	0.03321129997493699
0	18.442062699992675	stim	545		2	ambiguous_practice	ambiguous_practice	0.0	preferred_right	3600.0	0.0		26.157545000023674	0.0331867000204511
0	18.475249400013126	stim	546		2	ambiguous_practice	ambiguous_practice	0.0	preferred_right	3600.0	0.0		26.190731700044125	0.03355549997650087
0	18.508804899989627	stim	547		2	ambiguous_practice	ambiguous_practice	0.0	preferred_right	3600.0	0.0		26.224287200020626	0.03324740001698956
0	18.542052300006617	stim	548		2	ambiguous_practice	ambiguous_practice	0.0	preferred_right	3600.0	0.0		26.257534600037616	0.03342310001607984
0	18.575475400022697	stim	549		2	ambiguous_practice	ambiguous_practice	0.0	preferred_right	3600.0	0.0		26.290957700053696	0.03328969998983666
0	18.608765100012533	stim	550		2	ambiguous_practice	ambiguous_practice	0.0	preferred_right	3600.0	0.0		26.324247400043532	0.03353509999578819
0	18.64230020000832	stim	551		2	ambiguous_practice	ambiguous_practice	0.0	preferred_right	3600.0	0.0		26.35778250003932	0.03329429996665567
0	18.675594499974977	stim	552		2	ambiguous_practice	ambiguous_practice	0.0	preferred_right	3600.0	0.0		26.391076800005976	0.03350820002378896
0	18.709102699998766	stim	553		2	ambiguous_practice	ambiguous_practice	0.0	preferred_right	3600.0	0.0		26.424585000029765	0.0337001999723725
0	18.74280289997114	stim	554		2	ambiguous_practice	ambiguous_practice	0.0	preferred_right	3600.0	0.0		26.458285200002138	0.0332802000339143
0	18.776083100005053	stim	555		2	ambiguous_practice	ambiguous_practice	0.0	preferred_right	3600.0	0.0		26.491565400036052	0.0334026999771595
0	18.809485799982212	stim	556		2	ambiguous_practice	ambiguous_practice	0.0	preferred_right	3600.0	0.0		26.52496810001321	0.03328030003467575
0	18.84276610001689	stim	557		2	ambiguous_practice	ambiguous_practice	0.0	preferred_right	3600.0	0.0		26.558248400047887	0.03320279996842146
0	18.87596889998531	stim	558		2	ambiguous_practice	ambiguous_practice	0.0	preferred_right	3600.0	0.0		26.59145120001631	0.03378900000825524
0	18.909757899993565	stim	559		2	ambiguous_practice	ambiguous_practice	0.0	preferred_right	3600.0	0.0		26.625240200024564	0.03283119999105111
0	18.942589099984616	stim	560		2	ambiguous_practice	ambiguous_practice	0.0	preferred_right	3600.0	0.0		26.658071400015615	0.033320699993055314
0	18.97590979997767	stim	561		2	ambiguous_practice	ambiguous_practice	0.0	preferred_right	3600.0	0.0		26.69139210000867	0.0339242999907583
0	19.00983409996843	stim	562		2	ambiguous_practice	ambiguous_practice	0.0	preferred_right	3600.0	0.0		26.72531639999943	0.033253800007514656
0	19.043087899975944	stim	563		2	ambiguous_practice	ambiguous_practice	0.0	preferred_right	3600.0	0.0		26.758570200006943	0.03349520004121587
0	19.07658310001716	stim	564		2	ambiguous_practice	ambiguous_practice	0.0	preferred_right	3600.0	0.0		26.79206540004816	0.0333225000067614
0	19.10990560002392	stim	565		2	ambiguous_practice	ambiguous_practice	0.0	preferred_right	3600.0	0.0		26.82538790005492	0.033646199968643486
0	19.143551799992565	stim	566		2	ambiguous_practice	ambiguous_practice	0.0	preferred_right	3600.0	0.0		26.859034100023564	0.03337150003062561
0	19.17692330002319	stim	567		2	ambiguous_practice	ambiguous_practice	0.0	preferred_right	3600.0	0.0		26.89240560005419	0.0328561999485828
0	19.209779499971773	stim	568		2	ambiguous_practice	ambiguous_practice	0.0	preferred_right	3600.0	0.0		26.925261800002772	0.033722000021953136
0	19.243501499993727	stim	569		2	ambiguous_practice	ambiguous_practice	0.0	preferred_right	3600.0	0.0		26.958983800024725	0.0337874999968335
0	19.27728899999056	stim	570		2	ambiguous_practice	ambiguous_practice	0.0	preferred_right	3600.0	0.0		26.99277130002156	0.03328159998636693
0	19.310570599976927	stim	571		2	ambiguous_practice	ambiguous_practice	0.0	preferred_right	3600.0	0.0		27.026052900007926	0.03348720003850758
0	19.344057800015435	stim	572		2	ambiguous_practice	ambiguous_practice	0.0	preferred_right	3600.0	0.0		27.059540100046434	0.03333010000642389
0	19.37738790002186	stim	573		2	ambiguous_practice	ambiguous_practice	0.0	preferred_right	3600.0	0.0		27.092870200052857	0.03344879997894168
0	19.4108367000008	stim	574		2	ambiguous_practice	ambiguous_practice	0.0	preferred_right	3600.0	0.0		27.1263190000318	0.03307140001561493
0	19.443908100016415	stim	575		2	ambiguous_practice	ambiguous_practice	0.0	preferred_right	3600.0	0.0		27.159390400047414	0.03295659995637834
0	19.476864699972793	stim	576		2	ambiguous_practice	ambiguous_practice	0.0	preferred_right	3600.0	0.0		27.192347000003792	0.03383820003364235
0	19.510702900006436	stim	577		2	ambiguous_practice	ambiguous_practice	0.0	preferred_right	3600.0	0.0		27.226185200037435	0.033811000001151115
0	19.544513900007587	stim	578		2	ambiguous_practice	ambiguous_practice	0.0	preferred_right	3600.0	0.0		27.259996200038586	0.033296899986453354
0	19.57781079999404	stim	579		2	ambiguous_practice	ambiguous_practice	0.0	preferred_right	3600.0	0.0		27.29329310002504	0.03324279998196289
0	19.611053599976003	stim	580		2	ambiguous_practice	ambiguous_practice	0.0	preferred_right	3600.0	0.0		27.326535900007002	0.033040600013919175
0	19.644094199989922	stim	581		2	ambiguous_practice	ambiguous_practice	0.0	preferred_right	3600.0	0.0		27.35957650002092	0.033708100032527
0	19.67780230002245	stim	582		2	ambiguous_practice	ambiguous_practice	0.0	preferred_right	3600.0	0.0		27.39328460005345	0.03334799996810034
0	19.71115029999055	stim	583		2	ambiguous_practice	ambiguous_practice	0.0	preferred_right	3600.0	0.0		27.42663260002155	0.03315129998372868
0	19.74430159997428	stim	584		2	ambiguous_practice	ambiguous_practice	0.0	preferred_right	3600.0	0.0		27.459783900005277	0.03335650003282353
0	19.777658100007102	stim	585		2	ambiguous_practice	ambiguous_practice	0.0	preferred_right	3600.0	0.0		27.4931404000381	0.033770699985325336
0	19.811428799992427	stim	586		2	ambiguous_practice	ambiguous_practice	0.0	preferred_right	3600.0	0.0		27.526911100023426	0.03292899997904897
0	19.844357799971476	stim	587		2	ambiguous_practice	ambiguous_practice	0.0	preferred_right	3600.0	0.0		27.559840100002475	0.03416280000237748
0	19.878520599973854	stim	588		2	ambiguous_practice	ambiguous_practice	0.0	preferred_right	3600.0	0.0		27.594002900004853	0.03341500001261011
0	19.911935599986464	stim	589		2	ambiguous_practice	ambiguous_practice	0.0	preferred_right	3600.0	0.0		27.627417900017463	0.033217100019101053
0	19.945152700005565	stim	590		2	ambiguous_practice	ambiguous_practice	0.0	preferred_right	3600.0	0.0		27.660635000036564	0.033664299990050495
0	19.978816999995615	stim	591		2	ambiguous_practice	ambiguous_practice	0.0	preferred_right	3600.0	0.0		27.694299300026614	0.033989000017754734
0	20.01280600001337	stim	592		2	ambiguous_practice	ambiguous_practice	0.0	preferred_right	3600.0	0.0		27.72828830004437	0.03346820001024753
0	20.046274200023618	stim	593		2	ambiguous_practice	ambiguous_practice	0.0	preferred_right	3600.0	0.0		27.761756500054616	0.050278899958357215
0	20.096553099981975	stim	594		2	ambiguous_practice	ambiguous_practice	0.0	preferred_right	3600.0	0.0		27.812035400012974	0.050298099988140166
0	20.146851199970115	stim	595		2	ambiguous_practice	ambiguous_practice	0.0	preferred_right	3600.0	0.0		27.862333500001114	0.04992900002980605
0	20.19678019999992	stim	596		2	ambiguous_practice	ambiguous_practice	0.0	preferred_right	3600.0	0.0		27.91226250003092	0.0494810999953188
0	20.24626129999524	stim	597		2	ambiguous_practice	ambiguous_practice	0.0	preferred_right	3600.0	0.0		27.96174360002624	0.03380079998169094
0	20.28006209997693	stim	598		2	ambiguous_practice	ambiguous_practice	0.0	preferred_right	3600.0	0.0		27.99554440000793	0.03372280002804473
0	20.313784900004975	stim	599		2	ambiguous_practice	ambiguous_practice	0.0	preferred_right	3600.0	0.0		28.029267200035974	0.050215099996421486
0	20.364000000001397	stim	600		2	ambiguous_practice	ambiguous_practice	0.0	preferred_right	3600.0	0.0		28.079482300032396	0.05021770001621917
0	20.414217700017616	stim	601		2	ambiguous_practice	ambiguous_practice	0.0	preferred_right	3600.0	0.0		28.129700000048615	0.04947619995800778
0	20.463693899975624	stim	602		2	ambiguous_practice	ambiguous_practice	0.0	preferred_right	3600.0	0.0		28.179176200006623	0.033397599996533245
0	20.497091499972157	stim	603		2	ambiguous_practice	ambiguous_practice	0.0	preferred_right	3600.0	0.0		28.212573800003156	0.033470300026237965
0	20.530561799998395	stim	604		2	ambiguous_practice	ambiguous_practice	0.0	preferred_right	3600.0	0.0		28.246044100029394	0.033643500006292015
0	20.564205300004687	stim	605		2	ambiguous_practice	ambiguous_practice	0.0	preferred_right	3600.0	0.0		28.279687600035686	0.03346679999958724
0	20.597672100004274	stim	606		2	ambiguous_practice	ambiguous_practice	0.0	preferred_right	3600.0	0.0		28.313154400035273	0.03329270001268014
0	20.630964800016955	stim	607		2	ambiguous_practice	ambiguous_practice	0.0	preferred_right	3600.0	0.0		28.346447100047953	0.03355940000619739
0	20.664524200023152	stim	608		2	ambiguous_practice	ambiguous_practice	0.0	preferred_right	3600.0	0.0		28.38000650005415	0.03321779996622354
0	20.697741999989375	stim	609		2	ambiguous_practice	ambiguous_practice	0.0	preferred_right	3600.0	0.0		28.413224300020374	0.03351939999265596
0	20.73126139998203	stim	610		2	ambiguous_practice	ambiguous_practice	0.0	preferred_right	3600.0	0.0		28.44674370001303	0.03342009999323636
0	20.764681499975268	stim	611		2	ambiguous_practice	ambiguous_practice	0.0	preferred_right	3600.0	0.0		28.480163800006267	0.033778600045479834
0	20.798460100020748	stim	612		2	ambiguous_practice	ambiguous_practice	0.0	preferred_right	3600.0	0.0		28.513942400051747	0.03338340000482276
0	20.83184350002557	stim	613		2	ambiguous_practice	ambiguous_practice	0.0	preferred_right	3600.0	0.0		28.54732580005657	0.03403139999136329
0	20.865874900016934	stim	614		2	ambiguous_practice	ambiguous_practice	0.0	preferred_right	3600.0	0.0		28.581357200047933	0.03306319995317608
0	20.89893809997011	stim	615		2	ambiguous_practice	ambiguous_practice	0.0	preferred_right	3600.0	0.0		28.61442040000111	0.03367650002473965
0	20.93261459999485	stim	616		2	ambiguous_practice	ambiguous_practice	0.0	preferred_right	3600.0	0.0		28.64809690002585	0.03345789999002591
0	20.966072499984875	stim	617		2	ambiguous_practice	ambiguous_practice	0.0	preferred_right	3600.0	0.0		28.681554800015874	0.03385320003144443
0	20.99992570001632	stim	618		2	ambiguous_practice	ambiguous_practice	0.0	preferred_right	3600.0	0.0		28.71540800004732	0.03313060000073165
0	21.03305630001705	stim	619		2	ambiguous_practice	ambiguous_practice	0.0	preferred_right	3600.0	0.0		28.74853860004805	0.0333346999832429
0	21.066391000000294	stim	620		2	ambiguous_practice	ambiguous_practice	0.0	preferred_right	3600.0	0.0		28.781873300031293	0.03337050002301112
0	21.099761500023305	stim	621		2	ambiguous_practice	ambiguous_practice	0.0	preferred_right	3600.0	0.0		28.815243800054304	0.033412399992812425
0	21.133173900016118	stim	622		2	ambiguous_practice	ambiguous_practice	0.0	preferred_right	3600.0	0.0		28.848656200047117	0.03350069996668026
0	21.166674599982798	stim	623		2	ambiguous_practice	ambiguous_practice	0.0	preferred_right	3600.0	0.0		28.882156900013797	0.03330090001691133
0	21.19997549999971	stim	624		2	ambiguous_practice	ambiguous_practice	0.0	preferred_right	3600.0	0.0		28.91545780003071	0.035632000013720244
0	21.23560750001343	stim	625		2	ambiguous_practice	ambiguous_practice	0.0	preferred_right	3600.0	0.0		28.95108980004443	0.03418670000974089
0	21.26979420002317	stim	626		2	ambiguous_practice	ambiguous_practice	0.0	preferred_right	3600.0	0.0		28.98527650005417	0.033104299975093454
0	21.302898499998264	stim	627		2	ambiguous_practice	ambiguous_practice	0.0	preferred_right	3600.0	0.0		29.018380800029263	0.03338929999154061
0	21.336287799989805	stim	628		2	ambiguous_practice	ambiguous_practice	0.0	preferred_right	3600.0	0.0		29.051770100020804	0.03364410001086071
0	21.369931900000665	stim	629		2	ambiguous_practice	ambiguous_practice	0.0	preferred_right	3600.0	0.0		29.085414200031664	0.03335069998865947
0	21.403282599989325	stim	630		2	ambiguous_practice	ambiguous_practice	0.0	preferred_right	3600.0	0.0		29.118764900020324	0.03323689999524504
0	21.43651949998457	stim	631		2	ambiguous_practice	ambiguous_practice	0.0	preferred_right	3600.0	0.0		29.15200180001557	0.03332260000752285
0	21.469842099992093	stim	632		2	ambiguous_practice	ambiguous_practice	0.0	preferred_right	3600.0	0.0		29.18532440002309	0.03269439999712631
0	21.50253649998922	stim	633		0	ambiguous_practice	ambiguous_practice	0.0	preferred_right	3600.0	0.0		29.218018800020218	0.018211600021459162
